"","participant","Condition","number","correctkey","Congruent","key_response","correct","rt","exp_sess_trials.thisRepN","exp_sess_trials.thisTrialN","exp_sess_trials.thisN","exp_sess_trials.thisIndex","x","magnitude","hand","n_digits","ppid"
"1",9322,"Digit",1,"l","Incong","a",0,0.384365,4,2,66,3,2,"small","left",NA,1
"2",9322,"Numerosity",1,"a","Incong","l",0,0.41716,3,11,59,2,3,"small","right",NA,1
"3",9322,"Numerosity",1,"l","Incong","a",0,0.500345,1,14,30,2,4,"small","left",NA,1
"4",9322,"Numerosity",1,"a","Incong","l",0,0.53369,2,9,41,2,5,"small","right",NA,1
"5",9322,"Numerosity",1,"a","Incong","l",0,0.800715,2,10,42,3,6,"small","right",NA,1
"6",9322,"Numerosity",1,"a","Cong","a",1,0.367,0,6,6,1,13,"small","left",NA,1
"7",9322,"Numerosity",1,"l","Cong","l",1,0.41154,2,4,36,0,14,"small","right",NA,1
"8",9322,"Digit",1,"a","Cong","a",1,0.43304,1,12,28,0,15,"small","left",NA,1
"9",9322,"Numerosity",1,"l","Cong","l",1,0.433755,1,3,19,1,16,"small","right",NA,1
"10",9322,"Digit",1,"a","Cong","a",1,0.45706,0,10,10,0,17,"small","left",NA,1
"11",9322,"Digit",1,"a","Cong","a",1,0.4643,2,10,42,1,18,"small","left",NA,1
"12",9322,"Digit",1,"a","Cong","a",1,0.47436,0,3,3,1,19,"small","left",NA,1
"13",9322,"Digit",1,"l","Cong","l",1,0.483465,3,4,52,1,20,"small","right",NA,1
"14",9322,"Numerosity",1,"l","Cong","l",1,0.490955,2,5,37,1,21,"small","right",NA,1
"15",9322,"Numerosity",1,"l","Cong","l",1,0.49103,0,1,1,0,22,"small","right",NA,1
"16",9322,"Numerosity",1,"l","Cong","l",1,0.50019,3,5,53,1,23,"small","right",NA,1
"17",9322,"Digit",1,"l","Cong","l",1,0.50253,0,1,1,0,24,"small","right",NA,1
"18",9322,"Digit",1,"a","Cong","a",1,0.532915,1,6,22,1,25,"small","left",NA,1
"19",9322,"Numerosity",1,"l","Cong","l",1,0.534105,4,0,64,0,26,"small","right",NA,1
"20",9322,"Numerosity",1,"a","Cong","a",1,0.535155,1,1,17,1,27,"small","left",NA,1
"21",9322,"Digit",1,"a","Cong","a",1,0.544985,2,3,35,0,28,"small","left",NA,1
"22",9322,"Digit",1,"a","Cong","a",1,0.550525,3,10,58,0,29,"small","left",NA,1
"23",9322,"Numerosity",1,"l","Cong","l",1,0.583745,4,15,79,1,30,"small","right",NA,1
"24",9322,"Numerosity",1,"a","Cong","a",1,0.61707,4,7,71,1,31,"small","left",NA,1
"25",9322,"Numerosity",1,"a","Cong","a",1,0.63798,3,3,51,0,32,"small","left",NA,1
"26",9322,"Digit",1,"a","Cong","a",1,0.651785,3,3,51,1,33,"small","left",NA,1
"27",9322,"Numerosity",1,"a","Cong","a",1,0.673625,2,4,36,0,34,"small","left",NA,1
"28",9322,"Numerosity",1,"a","Cong","a",1,0.689255,3,6,54,1,35,"small","left",NA,1
"29",9322,"Numerosity",1,"l","Cong","l",1,0.69529,3,6,54,0,36,"small","right",NA,1
"30",9322,"Digit",1,"l","Cong","l",1,0.738025,4,11,75,1,37,"small","right",NA,1
"31",9322,"Numerosity",1,"l","Cong","l",1,0.758785,1,0,16,0,38,"small","right",NA,1
"32",9322,"Numerosity",1,"a","Cong","a",1,0.789395,0,3,3,0,39,"small","left",NA,1
"33",9322,"Digit",1,"l","Cong","l",1,0.850285,4,6,70,0,40,"small","right",NA,1
"34",9322,"Digit",1,"a","Cong","a",1,0.86608,4,14,78,0,41,"small","left",NA,1
"35",9322,"Numerosity",1,"a","Cong","a",1,0.86738,1,12,28,0,42,"small","left",NA,1
"36",9322,"Digit",1,"l","Cong","l",1,0.90036,2,1,33,0,43,"small","right",NA,1
"37",9322,"Digit",1,"a","Cong","a",1,0.917655,4,11,75,1,44,"small","left",NA,1
"38",9322,"Numerosity",1,"a","Cong","a",1,0.95035,2,11,43,1,45,"small","left",NA,1
"39",9322,"Digit",1,"l","Cong","l",1,0.98328,3,1,49,0,46,"small","right",NA,1
"40",9322,"Digit",1,"a","Incong","a",1,0.374765,3,0,48,2,52,"small","left",NA,1
"41",9322,"Digit",1,"a","Incong","a",1,0.435185,0,6,6,3,53,"small","left",NA,1
"42",9322,"Digit",1,"a","Incong","a",1,0.44964,0,5,5,2,54,"small","left",NA,1
"43",9322,"Numerosity",1,"a","Incong","a",1,0.46455,3,15,63,3,55,"small","left",NA,1
"44",9322,"Digit",1,"a","Incong","a",1,0.467095,2,7,39,3,56,"small","left",NA,1
"45",9322,"Numerosity",1,"a","Incong","a",1,0.48388,1,6,22,2,57,"small","left",NA,1
"46",9322,"Digit",1,"a","Incong","a",1,0.50716,1,4,20,2,58,"small","left",NA,1
"47",9322,"Numerosity",1,"a","Incong","a",1,0.53314,4,2,66,3,59,"small","left",NA,1
"48",9322,"Digit",1,"a","Incong","a",1,0.533605,3,12,60,3,60,"small","left",NA,1
"49",9322,"Numerosity",1,"l","Incong","l",1,0.55633,1,11,27,3,61,"small","right",NA,1
"50",9322,"Digit",1,"l","Incong","l",1,0.559185,2,11,43,2,62,"small","right",NA,1
"51",9322,"Digit",1,"l","Incong","l",1,0.56746,3,5,53,2,63,"small","right",NA,1
"52",9322,"Digit",1,"a","Incong","a",1,0.57608,1,0,16,3,64,"small","left",NA,1
"53",9322,"Numerosity",1,"a","Incong","a",1,0.617035,4,8,72,2,65,"small","left",NA,1
"54",9322,"Digit",1,"a","Incong","a",1,0.644665,2,5,37,2,66,"small","left",NA,1
"55",9322,"Numerosity",1,"a","Incong","a",1,0.68575,1,5,21,3,67,"small","left",NA,1
"56",9322,"Numerosity",1,"l","Incong","l",1,0.69312,3,10,58,3,68,"small","right",NA,1
"57",9322,"Numerosity",1,"a","Incong","a",1,0.700535,0,12,12,2,69,"small","left",NA,1
"58",9322,"Numerosity",1,"l","Incong","l",1,0.742545,2,12,44,3,70,"small","right",NA,1
"59",9322,"Digit",1,"l","Incong","l",1,0.74337,0,11,11,3,71,"small","right",NA,1
"60",9322,"Digit",1,"a","Incong","a",1,0.75001,4,0,64,2,72,"small","left",NA,1
"61",9322,"Digit",1,"l","Incong","l",1,0.750505,2,4,36,3,73,"small","right",NA,1
"62",9322,"Digit",1,"a","Incong","a",1,0.767405,4,1,65,3,74,"small","left",NA,1
"63",9322,"Numerosity",1,"l","Incong","l",1,0.77744,4,3,67,3,75,"small","right",NA,1
"64",9322,"Numerosity",1,"a","Incong","a",1,0.80017,0,6,6,3,76,"small","left",NA,1
"65",9322,"Digit",1,"l","Incong","l",1,0.88812,1,6,22,3,77,"small","right",NA,1
"66",9322,"Numerosity",1,"l","Incong","l",1,0.90044,0,0,0,3,78,"small","right",NA,1
"67",9322,"Digit",1,"l","Incong","l",1,0.968485,3,13,61,3,79,"small","right",NA,1
"68",9322,"Numerosity",1,"l","Incong","l",1,0.98304,2,9,41,2,80,"small","right",NA,1
"69",9322,"Digit",5,"l","Incong","l",1,0.55038,0,4,4,15,12272,"large","right",NA,1
"70",9322,"Digit",5,"l","Incong","l",1,0.550495,2,1,33,12,12273,"large","right",NA,1
"71",9322,"Numerosity",5,"a","Incong","a",1,0.550765,2,0,32,12,12274,"large","left",NA,1
"72",9322,"Digit",5,"l","Incong","l",1,0.574225,4,6,70,15,12275,"large","right",NA,1
"73",9322,"Numerosity",5,"a","Incong","a",1,0.57714,0,4,4,12,12276,"large","left",NA,1
"74",9322,"Digit",5,"l","Incong","l",1,0.585295,0,7,7,12,12277,"large","right",NA,1
"75",9322,"Digit",5,"l","Incong","l",1,0.59326,1,13,29,15,12278,"large","right",NA,1
"76",9322,"Numerosity",5,"l","Incong","l",1,0.6003,2,1,33,15,12279,"large","right",NA,1
"77",9322,"Digit",5,"a","Incong","a",1,0.60038,4,4,68,15,12280,"large","left",NA,1
"78",9322,"Numerosity",5,"l","Incong","l",1,0.600405,3,9,57,12,12281,"large","right",NA,1
"79",9322,"Numerosity",5,"l","Incong","l",1,0.61017,0,14,14,15,12282,"large","right",NA,1
"80",9322,"Numerosity",5,"a","Incong","a",1,0.666075,1,15,31,12,12283,"large","left",NA,1
"81",9322,"Numerosity",5,"a","Incong","a",1,0.732845,3,5,53,12,12284,"large","left",NA,1
"82",9322,"Digit",5,"l","Incong","l",1,0.76273,2,6,38,15,12285,"large","right",NA,1
"83",9322,"Numerosity",5,"a","Incong","a",1,0.765735,2,14,46,15,12286,"large","left",NA,1
"84",9322,"Digit",5,"l","Incong","l",1,0.783935,3,11,59,12,12287,"large","right",NA,1
"85",9322,"Numerosity",5,"l","Incong","l",1,0.80029,2,13,45,12,12288,"large","right",NA,1
"86",9322,"Digit",5,"l","Incong","l",1,0.81224,4,12,76,12,12289,"large","right",NA,1
"87",9322,"Numerosity",5,"a","Incong","a",1,0.81686,1,13,29,15,12290,"large","left",NA,1
"88",9322,"Numerosity",5,"a","Incong","a",1,0.832875,3,11,59,15,12291,"large","left",NA,1
"89",9322,"Numerosity",5,"l","Incong","l",1,0.833725,1,13,29,15,12292,"large","right",NA,1
"90",9322,"Digit",5,"a","Incong","a",1,0.834265,3,15,63,12,12293,"large","left",NA,1
"91",9322,"Digit",5,"a","Incong","a",1,0.871415,4,12,76,12,12294,"large","left",NA,1
"92",9322,"Numerosity",5,"a","Incong","a",1,0.895085,4,1,65,12,12295,"large","left",NA,1
"93",9322,"Digit",5,"a","Incong","a",1,0.98526,2,0,32,15,12296,"large","left",NA,1
"94",9322,"Digit",5,"a","Incong","a",1,0.995855,2,8,40,12,12297,"large","left",NA,1
"95",9322,"Digit",2,"l","Cong","l",1,0.75071,3,3,51,5,4105,"small","right",NA,1
"96",9322,"Digit",2,"l","Cong","l",1,0.75316,2,14,46,5,4106,"small","right",NA,1
"97",9322,"Numerosity",2,"a","Cong","a",1,0.7615,1,6,22,5,4107,"small","left",NA,1
"98",9322,"Numerosity",2,"l","Cong","l",1,0.7785,4,3,67,6,4108,"small","right",NA,1
"99",9322,"Numerosity",2,"a","Cong","a",1,0.831135,0,10,10,5,4109,"small","left",NA,1
"100",9322,"Numerosity",2,"l","Cong","l",1,0.83286,2,12,44,5,4110,"small","right",NA,1
"101",9322,"Digit",2,"a","Cong","a",1,0.833715,4,2,66,6,4111,"small","left",NA,1
"102",9322,"Digit",2,"l","Cong","l",1,0.850695,4,1,65,6,4112,"small","right",NA,1
"103",9322,"Digit",2,"l","Cong","l",1,0.943085,2,13,45,6,4113,"small","right",NA,1
"104",9322,"Digit",2,"l","Cong","l",1,0.959185,1,4,20,5,4114,"small","right",NA,1
"105",9322,"Numerosity",2,"a","Incong","a",1,0.38357,4,10,74,4,4121,"small","left",NA,1
"106",9322,"Numerosity",2,"a","Incong","a",1,0.445545,2,2,34,4,4122,"small","left",NA,1
"107",9322,"Numerosity",2,"l","Incong","l",1,0.461495,0,9,9,7,4123,"small","right",NA,1
"108",9322,"Digit",2,"a","Incong","a",1,0.47312,0,0,0,7,4124,"small","left",NA,1
"109",9322,"Digit",2,"a","Incong","a",1,0.49529,2,2,34,4,4125,"small","left",NA,1
"110",9322,"Digit",2,"a","Incong","a",1,0.499475,1,10,26,7,4126,"small","left",NA,1
"111",9322,"Numerosity",2,"a","Incong","a",1,0.516715,4,14,78,7,4127,"small","left",NA,1
"112",9322,"Numerosity",2,"l","Incong","l",1,0.51695,2,1,33,7,4128,"small","right",NA,1
"113",9322,"Digit",2,"a","Incong","a",1,0.51908,4,10,74,7,4129,"small","left",NA,1
"114",9322,"Digit",2,"l","Incong","l",1,0.543075,0,6,6,7,4130,"small","right",NA,1
"115",9322,"Digit",2,"l","Incong","l",1,0.55969,2,10,42,7,4131,"small","right",NA,1
"116",9322,"Numerosity",2,"a","Incong","a",1,0.56197,1,9,25,7,4132,"small","left",NA,1
"117",9322,"Numerosity",2,"l","Incong","l",1,0.56634,0,5,5,4,4133,"small","right",NA,1
"118",9322,"Digit",2,"a","Incong","a",1,0.583645,4,8,72,4,4134,"small","left",NA,1
"119",9322,"Numerosity",2,"a","Incong","a",1,0.583745,2,7,39,7,4135,"small","left",NA,1
"120",9322,"Numerosity",2,"l","Incong","l",1,0.602545,2,10,42,4,4136,"small","right",NA,1
"121",9322,"Digit",2,"l","Incong","l",1,0.63358,4,5,69,4,4137,"small","right",NA,1
"122",9322,"Numerosity",2,"a","Incong","a",1,0.64381,0,13,13,7,4138,"small","left",NA,1
"123",9322,"Digit",2,"a","Incong","a",1,0.664775,1,2,18,4,4139,"small","left",NA,1
"124",9322,"Digit",2,"l","Incong","l",1,0.666915,4,7,71,7,4140,"small","right",NA,1
"125",9322,"Numerosity",2,"l","Incong","l",1,0.683575,1,0,16,4,4141,"small","right",NA,1
"126",9322,"Digit",2,"a","Incong","a",1,0.700475,2,13,45,7,4142,"small","left",NA,1
"127",9322,"Numerosity",2,"l","Incong","l",1,0.733155,4,5,69,4,4143,"small","right",NA,1
"128",9322,"Digit",2,"a","Incong","a",1,0.778825,3,9,57,4,4144,"small","left",NA,1
"129",9322,"Numerosity",4,"l","Cong","a",0,0.467145,1,9,25,11,8143,"large","left",NA,1
"130",9322,"Numerosity",4,"l","Incong","a",0,0.372925,4,11,75,9,8144,"large","left",NA,1
"131",9322,"Numerosity",4,"a","Incong","l",0,0.496235,0,12,12,8,8145,"large","right",NA,1
"132",9322,"Numerosity",4,"l","Cong","l",1,1.00058,2,7,39,11,8149,"large","right",6,1
"133",9322,"Numerosity",4,"a","Cong","a",1,1.04074,2,15,47,11,8150,"large","left",6,1
"134",9322,"Digit",4,"a","Cong","a",1,1.12006,1,1,17,10,8151,"large","left",6,1
"135",9322,"Digit",4,"a","Cong","a",1,1.43373,2,2,34,10,8152,"large","left",6,1
"136",9322,"Digit",4,"a","Cong","a",1,1.232625,2,9,41,11,8153,"large","left",7,1
"137",9322,"Numerosity",4,"l","Cong","l",1,1.283115,1,10,26,10,8154,"large","right",7,1
"138",9322,"Numerosity",4,"a","Incong","a",1,1.018175,0,13,13,9,8188,"large","left",7,1
"139",9322,"Numerosity",4,"a","Incong","a",1,1.041275,2,13,45,9,8189,"large","left",7,1
"140",9322,"Digit",4,"l","Incong","l",1,1.565255,4,5,69,8,8190,"large","right",7,1
"141",9322,"Digit",4,"a","Incong","a",1,1.673455,0,0,0,9,8191,"large","left",7,1
"142",9322,"Digit",4,"a","Incong","a",1,1.900565,1,3,19,8,8192,"large","left",7,1
"143",9322,"Digit",4,"l","Cong","l",1,0.58315,4,7,71,11,8163,"large","right",NA,1
"144",9322,"Numerosity",4,"a","Cong","a",1,0.583665,2,0,32,10,8164,"large","left",NA,1
"145",9322,"Numerosity",4,"a","Cong","a",1,0.59077,3,7,55,10,8165,"large","left",NA,1
"146",9322,"Numerosity",4,"a","Cong","a",1,0.593155,0,3,3,11,8166,"large","left",NA,1
"147",9322,"Digit",4,"l","Cong","l",1,0.60031,4,9,73,10,8167,"large","right",NA,1
"148",9322,"Digit",4,"a","Cong","a",1,0.600455,3,7,55,10,8168,"large","left",NA,1
"149",9322,"Digit",4,"l","Cong","l",1,0.62943,1,5,21,11,8169,"large","right",NA,1
"150",9322,"Digit",4,"a","Cong","a",1,0.651,4,8,72,10,8170,"large","left",NA,1
"151",9322,"Digit",4,"l","Cong","l",1,0.672285,2,4,36,10,8171,"large","right",NA,1
"152",9322,"Numerosity",5,"a","Cong","l",0,0.733125,1,10,26,14,12218,"large","right",NA,1
"153",9322,"Numerosity",5,"l","Cong","l",1,0.40036,0,7,7,13,12227,"large","right",NA,1
"154",9322,"Numerosity",5,"a","Cong","a",1,0.407745,2,6,38,14,12228,"large","left",NA,1
"155",9322,"Digit",5,"l","Cong","l",1,0.450475,1,8,24,14,12229,"large","right",NA,1
"156",9322,"Digit",5,"l","Cong","l",1,0.45074,0,9,9,14,12230,"large","right",NA,1
"157",9322,"Digit",5,"a","Cong","a",1,0.450895,4,0,64,13,12231,"large","left",NA,1
"158",9322,"Numerosity",5,"a","Cong","a",1,0.466885,3,14,62,13,12232,"large","left",NA,1
"159",9322,"Digit",5,"l","Cong","l",1,0.46711,2,8,40,13,12233,"large","right",NA,1
"160",9322,"Digit",5,"l","Cong","l",1,0.4713,2,11,43,14,12234,"large","right",NA,1
"161",9322,"Numerosity",5,"a","Cong","a",1,0.49538,4,9,73,13,12235,"large","left",NA,1
"162",9322,"Numerosity",5,"l","Cong","l",1,0.53371,1,3,19,14,12236,"large","right",NA,1
"163",9322,"Digit",5,"l","Cong","l",1,0.55064,0,8,8,13,12237,"large","right",NA,1
"164",9322,"Numerosity",5,"l","Cong","l",1,0.590435,3,2,50,13,12238,"large","right",NA,1
"165",9322,"Numerosity",5,"a","Cong","a",1,0.600255,4,12,76,14,12239,"large","left",NA,1
"166",9322,"Digit",5,"l","Cong","l",1,0.606625,1,1,17,13,12240,"large","right",NA,1
"167",9322,"Digit",5,"l","Cong","l",1,0.616935,3,1,49,14,12241,"large","right",NA,1
"168",9322,"Numerosity",5,"a","Cong","a",1,0.61702,1,4,20,13,12242,"large","left",NA,1
"169",9322,"Numerosity",5,"l","Cong","l",1,0.617045,0,1,1,14,12243,"large","right",NA,1
"170",9322,"Digit",5,"l","Cong","l",1,0.633325,3,5,53,13,12244,"large","right",NA,1
"171",9322,"Digit",5,"l","Cong","l",1,0.645805,4,15,79,13,12245,"large","right",NA,1
"172",9322,"Digit",5,"a","Cong","a",1,0.65023,0,2,2,13,12246,"large","left",NA,1
"173",9322,"Numerosity",5,"a","Cong","a",1,0.650335,3,3,51,14,12247,"large","left",NA,1
"174",9322,"Digit",5,"a","Cong","a",1,0.687125,3,6,54,13,12248,"large","left",NA,1
"175",9322,"Numerosity",5,"l","Cong","l",1,0.69427,3,1,49,14,12249,"large","right",NA,1
"176",9322,"Digit",5,"a","Cong","a",1,0.75582,1,11,27,13,12250,"large","left",NA,1
"177",9322,"Numerosity",5,"a","Cong","a",1,0.76761,2,14,46,13,12251,"large","left",NA,1
"178",9322,"Digit",5,"l","Cong","l",1,0.784345,4,3,67,14,12252,"large","right",NA,1
"179",9322,"Digit",5,"a","Cong","a",1,0.789135,2,3,35,13,12253,"large","left",NA,1
"180",9322,"Digit",5,"a","Cong","a",1,0.800255,3,8,56,14,12254,"large","left",NA,1
"181",9322,"Numerosity",5,"l","Cong","l",1,0.86698,4,9,73,14,12255,"large","right",NA,1
"182",9322,"Numerosity",5,"l","Cong","l",1,0.88391,2,15,47,13,12256,"large","right",NA,1
"183",9322,"Digit",5,"a","Cong","a",1,0.912255,4,14,78,14,12257,"large","left",NA,1
"184",9322,"Numerosity",5,"a","Incong","a",1,0.467475,0,8,8,15,12266,"large","left",NA,1
"185",9322,"Numerosity",5,"l","Incong","l",1,0.477245,3,12,60,15,12267,"large","right",NA,1
"186",9322,"Numerosity",5,"l","Incong","l",1,0.48385,4,5,69,15,12268,"large","right",NA,1
"187",9322,"Digit",5,"l","Incong","l",1,0.513105,1,11,27,12,12269,"large","right",NA,1
"188",9322,"Numerosity",5,"l","Incong","l",1,0.533535,4,1,65,12,12270,"large","right",NA,1
"189",9322,"Numerosity",5,"l","Incong","l",1,0.54636,0,5,5,12,12271,"large","right",NA,1
"190",9322,"Numerosity",4,"l","Incong","l",1,0.723495,3,4,52,8,8215,"large","right",NA,1
"191",9322,"Digit",4,"l","Incong","l",1,0.73517,3,2,50,8,8216,"large","right",NA,1
"192",9322,"Numerosity",4,"l","Incong","l",1,0.750145,4,6,70,8,8217,"large","right",NA,1
"193",9322,"Numerosity",4,"l","Incong","l",1,0.81734,0,0,0,8,8218,"large","right",NA,1
"194",9322,"Numerosity",4,"l","Incong","l",1,0.841125,1,2,18,9,8219,"large","right",NA,1
"195",9322,"Digit",4,"a","Incong","a",1,0.8493,4,3,67,9,8220,"large","left",NA,1
"196",9322,"Digit",4,"a","Incong","a",1,0.850675,3,11,59,8,8221,"large","left",NA,1
"197",9322,"Digit",4,"a","Incong","a",1,0.925525,1,2,18,9,8222,"large","left",NA,1
"198",9322,"Digit",2,"a","Cong","a",1,0.457845,1,3,19,6,4087,"small","left",NA,1
"199",9322,"Digit",2,"l","Cong","l",1,0.466915,0,3,3,5,4088,"small","right",NA,1
"200",9322,"Numerosity",2,"a","Cong","a",1,0.516935,1,8,24,6,4089,"small","left",NA,1
"201",9322,"Numerosity",2,"l","Cong","l",1,0.52119,4,13,77,5,4090,"small","right",NA,1
"202",9322,"Digit",2,"a","Cong","a",1,0.527815,0,2,2,5,4091,"small","left",NA,1
"203",9322,"Digit",2,"l","Cong","l",1,0.533835,3,12,60,6,4092,"small","right",NA,1
"204",9322,"Digit",2,"a","Cong","a",1,0.536675,0,15,15,6,4093,"small","left",NA,1
"205",9322,"Numerosity",2,"a","Cong","a",1,0.567105,3,12,60,6,4094,"small","left",NA,1
"206",9322,"Digit",2,"a","Cong","a",1,0.583805,3,14,62,5,4095,"small","left",NA,1
"207",9322,"Numerosity",2,"l","Cong","l",1,0.60016,1,1,17,6,4096,"small","right",NA,1
"208",9322,"Numerosity",2,"l","Cong","l",1,0.60048,2,3,35,6,4097,"small","right",NA,1
"209",9322,"Digit",2,"l","Cong","l",1,0.617695,0,4,4,6,4098,"small","right",NA,1
"210",9322,"Numerosity",2,"l","Cong","l",1,0.64106,0,9,9,6,4099,"small","right",NA,1
"211",9322,"Digit",2,"a","Cong","a",1,0.644985,4,13,77,5,4100,"small","left",NA,1
"212",9322,"Digit",2,"a","Cong","a",1,0.66932,1,7,23,5,4101,"small","left",NA,1
"213",9322,"Numerosity",2,"a","Cong","a",1,0.73328,0,11,11,6,4102,"small","left",NA,1
"214",9322,"Digit",2,"l","Cong","l",1,0.7335,4,15,79,5,4103,"small","right",NA,1
"215",9322,"Numerosity",2,"a","Cong","a",1,0.750315,3,15,63,5,4104,"small","left",NA,1
"216",9322,"Digit",4,"l","Cong","l",1,0.42753,0,13,13,11,8155,"large","right",NA,1
"217",9322,"Numerosity",4,"a","Cong","a",1,0.45038,4,4,68,11,8156,"large","left",NA,1
"218",9322,"Numerosity",4,"a","Cong","a",1,0.4622,4,7,71,10,8157,"large","left",NA,1
"219",9322,"Digit",4,"l","Cong","l",1,0.467215,3,6,54,10,8158,"large","right",NA,1
"220",9322,"Numerosity",4,"a","Cong","a",1,0.51762,1,8,24,10,8159,"large","left",NA,1
"221",9322,"Digit",4,"a","Cong","a",1,0.52033,0,9,9,11,8160,"large","left",NA,1
"222",9322,"Numerosity",4,"l","Cong","l",1,0.566805,0,2,2,11,8161,"large","right",NA,1
"223",9322,"Digit",4,"l","Cong","l",1,0.56912,3,8,56,11,8162,"large","right",NA,1
"224",9322,"Digit",2,"l","Incong","l",1,1.917445,0,13,13,4,4120,"small","right",7,1
"225",9322,"Numerosity",1,"l","Incong","l",1,1.10029,0,15,15,2,48,"small","right",6,1
"226",9322,"Digit",1,"l","Incong","l",1,1.101725,0,12,12,2,49,"small","right",7,1
"227",9322,"Numerosity",1,"l","Incong","l",1,1.226915,3,0,48,2,50,"small","right",7,1
"228",9322,"Digit",1,"l","Incong","l",1,1.300175,4,13,77,2,51,"small","right",7,1
"229",9322,"Numerosity",4,"a","Incong","a",1,0.70015,3,7,55,8,8213,"large","left",NA,1
"230",9322,"Digit",4,"a","Incong","a",1,0.70033,0,7,7,8,8214,"large","left",NA,1
"231",9322,"Digit",5,"a","Incong","a",1,1.418955,1,15,31,12,12263,"large","left",7,1
"232",9322,"Digit",2,"a","Cong","l",0,0.568495,3,7,55,6,4074,"small","right",NA,1
"233",9322,"Digit",4,"a","Cong","a",1,0.70787,0,8,8,10,8172,"large","left",NA,1
"234",9322,"Digit",4,"a","Cong","a",1,0.72118,3,14,62,11,8173,"large","left",NA,1
"235",9322,"Numerosity",4,"l","Cong","l",1,0.733895,0,14,14,10,8174,"large","right",NA,1
"236",9322,"Numerosity",4,"a","Cong","a",1,0.75307,0,15,15,10,8175,"large","left",NA,1
"237",9322,"Digit",4,"a","Cong","a",1,0.75828,1,14,30,11,8176,"large","left",NA,1
"238",9322,"Numerosity",4,"l","Cong","l",1,0.767515,2,8,40,10,8177,"large","right",NA,1
"239",9322,"Numerosity",4,"l","Cong","l",1,0.775355,3,13,61,11,8178,"large","right",NA,1
"240",9322,"Digit",4,"l","Cong","l",1,0.78405,0,11,11,10,8179,"large","right",NA,1
"241",9322,"Digit",4,"a","Cong","a",1,0.78452,4,10,74,11,8180,"large","left",NA,1
"242",9322,"Digit",4,"l","Cong","l",1,0.786665,2,14,46,11,8181,"large","right",NA,1
"243",9322,"Numerosity",4,"a","Cong","a",1,0.800035,3,2,50,11,8182,"large","left",NA,1
"244",9322,"Numerosity",4,"l","Cong","l",1,0.80065,3,14,62,10,8183,"large","right",NA,1
"245",9322,"Numerosity",4,"l","Cong","l",1,0.817335,4,15,79,10,8184,"large","right",NA,1
"246",9322,"Digit",4,"l","Cong","l",1,0.834425,1,9,25,10,8185,"large","right",NA,1
"247",9322,"Numerosity",4,"a","Cong","a",1,0.900275,1,11,27,11,8186,"large","left",NA,1
"248",9322,"Numerosity",4,"l","Cong","l",1,0.935965,4,14,78,11,8187,"large","right",NA,1
"249",9322,"Numerosity",4,"l","Incong","l",1,0.400225,3,13,61,9,8193,"large","right",NA,1
"250",9322,"Digit",2,"l","Incong","l",1,0.800735,1,10,26,7,4145,"small","right",NA,1
"251",9322,"Numerosity",2,"a","Incong","a",1,0.810955,1,12,28,4,4146,"small","left",NA,1
"252",9322,"Digit",2,"l","Incong","l",1,0.833565,3,2,50,7,4147,"small","right",NA,1
"253",9322,"Numerosity",4,"a","Incong","l",0,0.55036,4,4,68,9,8146,"large","right",NA,1
"254",9322,"Numerosity",4,"l","Incong","a",0,0.56717,2,8,40,9,8147,"large","left",NA,1
"255",9322,"Numerosity",4,"l","Incong","a",0,0.69123,0,10,10,9,8148,"large","left",NA,1
"256",9322,"Digit",4,"l","Incong","l",1,0.56898,3,4,52,9,8200,"large","right",NA,1
"257",9322,"Digit",4,"a","Incong","a",1,0.58723,2,5,37,8,8201,"large","left",NA,1
"258",9322,"Digit",4,"l","Incong","l",1,0.592485,0,1,1,9,8202,"large","right",NA,1
"259",9322,"Numerosity",4,"l","Incong","l",1,0.60015,1,7,23,8,8203,"large","right",NA,1
"260",9322,"Digit",4,"a","Incong","a",1,0.600455,3,10,58,9,8204,"large","left",NA,1
"261",9322,"Digit",4,"a","Incong","a",1,0.617295,2,6,38,9,8205,"large","left",NA,1
"262",9322,"Digit",4,"l","Incong","l",1,0.62596,1,15,31,9,8206,"large","right",NA,1
"263",9322,"Digit",4,"a","Incong","a",1,0.633255,4,9,73,8,8207,"large","left",NA,1
"264",9322,"Numerosity",4,"l","Incong","l",1,0.639815,2,11,43,8,8208,"large","right",NA,1
"265",9322,"Digit",4,"l","Incong","l",1,0.66619,2,12,44,9,8209,"large","right",NA,1
"266",9322,"Digit",4,"l","Incong","l",1,0.675895,4,4,68,9,8210,"large","right",NA,1
"267",9322,"Digit",4,"l","Incong","l",1,0.684135,2,9,41,8,8211,"large","right",NA,1
"268",9322,"Numerosity",4,"a","Incong","a",1,0.686235,1,2,18,9,8212,"large","left",NA,1
"269",9322,"Numerosity",5,"a","Incong","a",1,1.29165,4,13,77,15,12260,"large","left",6,1
"270",9322,"Numerosity",5,"l","Incong","l",1,1.100395,1,15,31,12,12261,"large","right",7,1
"271",9322,"Digit",5,"a","Incong","a",1,1.317535,1,12,28,15,12262,"large","left",7,1
"272",9322,"Digit",2,"a","Incong","a",1,0.991455,3,13,61,7,4152,"small","left",NA,1
"273",9322,"Digit",2,"a","Cong","l",0,0.61672,2,15,47,5,4075,"small","right",NA,1
"274",9322,"Numerosity",2,"l","Cong","a",0,0.800625,0,7,7,5,4076,"small","left",NA,1
"275",9322,"Numerosity",2,"a","Incong","l",0,0.474135,0,4,4,4,4077,"small","right",NA,1
"276",9322,"Numerosity",2,"a","Cong","a",1,0.384325,4,6,70,6,4083,"small","left",NA,1
"277",9322,"Numerosity",2,"l","Cong","l",1,0.433495,3,10,58,5,4084,"small","right",NA,1
"278",9322,"Numerosity",2,"l","Cong","l",1,0.450445,3,8,56,6,4085,"small","right",NA,1
"279",9322,"Digit",2,"a","Cong","a",1,0.456085,2,0,32,6,4086,"small","left",NA,1
"280",9322,"Digit",4,"l","Incong","l",1,0.55971,1,14,30,8,8197,"large","right",NA,1
"281",9322,"Numerosity",4,"a","Incong","a",1,0.5669,4,8,72,8,8198,"large","left",NA,1
"282",9322,"Numerosity",4,"a","Incong","a",1,0.56724,3,8,56,9,8199,"large","left",NA,1
"283",9322,"Digit",2,"l","Incong","l",1,0.88764,1,5,21,4,4150,"small","right",NA,1
"284",9322,"Numerosity",2,"l","Incong","l",1,0.90614,4,2,66,7,4151,"small","right",NA,1
"285",9322,"Numerosity",2,"l","Incong","l",1,1.166765,3,4,52,7,4117,"small","right",7,1
"286",9322,"Numerosity",2,"l","Incong","l",1,0.999945,1,4,20,7,4153,"small","right",NA,1
"287",9322,"Digit",2,"l","Incong","l",1,1.09937,3,0,48,4,4115,"small","right",6,1
"288",9322,"Numerosity",2,"a","Incong","a",1,1.51837,3,0,48,4,4116,"small","left",6,1
"289",9322,"Numerosity",5,"a","Cong","a",1,1.219505,0,11,11,14,12226,"large","left",7,1
"290",9322,"Numerosity",4,"a","Incong","a",1,0.46697,1,7,23,8,8194,"large","left",NA,1
"291",9322,"Digit",4,"l","Incong","l",1,0.49983,0,12,12,8,8195,"large","right",NA,1
"292",9322,"Numerosity",4,"a","Incong","a",1,0.55107,2,6,38,8,8196,"large","left",NA,1
"293",9322,"Digit",5,"a","Incong","a",1,1.629005,0,5,5,12,12264,"large","left",7,1
"294",9322,"Digit",5,"l","Incong","l",1,1.8639,3,15,63,15,12258,"large","right",5,1
"295",9322,"Digit",5,"a","Incong","a",1,1.08436,3,9,57,15,12259,"large","left",6,1
"296",9322,"Digit",2,"a","Incong","a",1,0.862465,0,14,14,4,4149,"small","left",NA,1
"297",9322,"Digit",1,"l","Incong","l",1,1.00888,1,0,16,2,47,"small","right",6,1
"298",9322,"Digit",5,"a","Incong","a",1,1.716965,0,14,14,15,12265,"large","left",7,1
"299",9322,"Digit",2,"l","Incong","l",1,1.331105,2,7,39,4,4118,"small","right",7,1
"300",9322,"Numerosity",5,"l","Cong","l",1,1.0502,2,3,35,14,12219,"large","right",5,1
"301",9322,"Digit",5,"a","Cong","a",1,1.106325,1,8,24,14,12223,"large","left",7,1
"302",9322,"Numerosity",5,"a","Cong","a",1,1.216975,0,8,8,13,12225,"large","left",7,1
"303",9322,"Digit",1,"l","Cong","l",1,1.399465,0,10,10,1,12,"small","right",7,1
"304",9322,"Numerosity",2,"l","Incong","l",1,1.433445,3,9,57,4,4119,"small","right",7,1
"305",9322,"Digit",1,"l","Cong","l",1,1.40789,1,13,29,1,8,"small","right",6,1
"306",9322,"Digit",5,"a","Cong","a",1,1.00733,0,15,15,14,12220,"large","left",6,1
"307",9322,"Numerosity",5,"l","Cong","l",1,1.23388,4,0,64,13,12221,"large","right",6,1
"308",9322,"Numerosity",2,"a","Incong","a",1,0.83635,3,1,49,7,4148,"small","left",NA,1
"309",9322,"Numerosity",5,"l","Cong","l",1,1.193795,1,5,21,13,12224,"large","right",7,1
"310",9322,"Digit",1,"l","Cong","l",1,1.236535,2,12,44,1,11,"small","right",7,1
"311",9322,"Digit",5,"a","Cong","a",1,1.37039,2,15,47,14,12222,"large","left",6,1
"312",9322,"Numerosity",1,"l","Cong","l",1,1.51172,0,2,2,1,9,"small","right",6,1
"313",9322,"Numerosity",1,"l","Incong","a",0,1.116835,4,10,74,2,1,"small","left",7,1
"314",9322,"Digit",2,"l","Cong","l",1,2.636515,1,9,25,6,4082,"small","right",7,1
"315",9322,"Numerosity",2,"a","Cong","a",1,1.0765,2,5,37,6,4078,"small","left",5,1
"316",9322,"Digit",1,"l","Cong","l",1,1.59309,1,7,23,0,10,"small","right",6,1
"317",9322,"Numerosity",1,"a","Cong","a",1,1.16693,4,12,76,0,7,"small","left",6,1
"318",9322,"Numerosity",2,"a","Cong","a",1,1.22145,4,11,75,5,4079,"small","left",6,1
"319",9322,"Numerosity",2,"l","Cong","l",1,1.37749,1,14,30,5,4081,"small","right",6,1
"320",9322,"Numerosity",2,"a","Cong","a",1,1.26951,2,2,34,5,4080,"small","left",6,1
"321",9478,"Numerosity",1,"a","Cong","a",1,0.78653,1,5,21,0,125,"small","left",NA,2
"322",9478,"Digit",1,"a","Incong","a",1,0.439995,4,15,79,3,137,"small","left",NA,2
"323",9478,"Numerosity",1,"l","Incong","l",1,0.430155,4,11,75,3,136,"small","right",NA,2
"324",9478,"Numerosity",1,"l","Incong","l",1,0.460555,2,2,34,2,140,"small","right",NA,2
"325",9478,"Numerosity",1,"a","Incong","a",1,0.455255,2,7,39,2,138,"small","left",NA,2
"326",9478,"Numerosity",1,"a","Incong","a",1,0.42049,0,4,4,3,135,"small","left",NA,2
"327",9478,"Digit",1,"a","Cong","a",1,0.767955,3,2,50,0,123,"small","left",NA,2
"328",9478,"Digit",1,"l","Incong","l",1,0.45743,2,9,41,2,139,"small","right",NA,2
"329",9478,"Numerosity",1,"a","Cong","a",1,0.40394,0,8,8,0,97,"small","left",NA,2
"330",9478,"Numerosity",1,"l","Cong","l",1,0.75219,0,7,7,1,122,"small","right",NA,2
"331",9478,"Digit",1,"l","Cong","l",1,0.77145,0,10,10,1,124,"small","right",NA,2
"332",9478,"Numerosity",4,"l","Incong","l",1,0.756635,2,2,34,9,8300,"large","right",NA,2
"333",9478,"Numerosity",1,"a","Incong","a",1,0.41914,3,5,53,2,134,"small","left",NA,2
"334",9478,"Digit",1,"a","Incong","a",1,0.312895,3,7,55,3,126,"small","left",NA,2
"335",9478,"Numerosity",1,"a","Cong","a",1,0.392675,4,3,67,0,95,"small","left",NA,2
"336",9478,"Digit",1,"a","Cong","a",1,0.401375,0,9,9,1,96,"small","left",NA,2
"337",9478,"Digit",1,"a","Cong","a",1,0.504305,2,2,34,0,110,"small","left",NA,2
"338",9478,"Digit",1,"a","Cong","a",1,0.376465,4,2,66,0,93,"small","left",NA,2
"339",9478,"Numerosity",1,"l","Cong","l",1,0.38135,1,0,16,1,94,"small","right",NA,2
"340",9478,"Numerosity",1,"l","Cong","l",1,0.50342,3,13,61,0,109,"small","right",NA,2
"341",9478,"Numerosity",1,"l","Incong","l",1,0.4714,2,8,40,3,142,"small","right",NA,2
"342",9478,"Numerosity",1,"l","Cong","l",1,0.508435,4,2,66,0,111,"small","right",NA,2
"343",9478,"Digit",1,"a","Cong","a",1,0.40814,4,14,78,1,98,"small","left",NA,2
"344",9478,"Numerosity",1,"a","Incong","a",1,0.469935,4,6,70,3,141,"small","left",NA,2
"345",9478,"Digit",1,"a","Incong","a",1,0.40293,0,8,8,3,133,"small","left",NA,2
"346",9478,"Digit",1,"a","Cong","a",1,0.35583,0,7,7,0,92,"small","left",NA,2
"347",9478,"Digit",1,"l","Cong","l",1,0.588645,4,4,68,1,120,"small","right",NA,2
"348",9478,"Digit",1,"l","Cong","l",1,0.711815,4,1,65,0,121,"small","right",NA,2
"349",9478,"Digit",4,"l","Incong","l",1,0.645115,2,5,37,8,8297,"large","right",NA,2
"350",9478,"Digit",4,"a","Incong","a",1,0.671915,1,4,20,8,8298,"large","left",NA,2
"351",9478,"Numerosity",4,"l","Incong","l",1,0.695065,4,5,69,9,8299,"large","right",NA,2
"352",9478,"Digit",5,"a","Cong","a",1,0.41111,3,11,59,13,12315,"large","left",NA,2
"353",9478,"Numerosity",1,"a","Cong","a",1,0.430265,2,0,32,0,99,"small","left",NA,2
"354",9478,"Numerosity",1,"l","Cong","l",1,0.437975,0,1,1,0,100,"small","right",NA,2
"355",9478,"Digit",1,"a","Incong","a",1,0.373535,1,14,30,2,129,"small","left",NA,2
"356",9478,"Digit",1,"l","Incong","l",1,0.3808,0,6,6,3,130,"small","right",NA,2
"357",9478,"Digit",1,"l","Incong","l",1,0.39476,3,10,58,2,131,"small","right",NA,2
"358",9478,"Digit",1,"a","Incong","a",1,0.399365,0,3,3,2,132,"small","left",NA,2
"359",9478,"Numerosity",1,"l","Cong","l",1,0.487345,1,3,19,0,105,"small","right",NA,2
"360",9478,"Numerosity",5,"a","Cong","a",1,0.473595,3,6,54,14,12323,"large","left",NA,2
"361",9478,"Digit",5,"l","Cong","l",1,0.479675,0,1,1,13,12324,"large","right",NA,2
"362",9478,"Numerosity",5,"a","Cong","a",1,0.48022,2,4,36,13,12325,"large","left",NA,2
"363",9478,"Numerosity",5,"a","Cong","a",1,0.485865,0,14,14,13,12326,"large","left",NA,2
"364",9478,"Numerosity",5,"l","Cong","l",1,0.48661,1,6,22,13,12327,"large","right",NA,2
"365",9478,"Numerosity",5,"a","Cong","a",1,0.486795,0,0,0,14,12328,"large","left",NA,2
"366",9478,"Numerosity",5,"l","Cong","l",1,0.41336,0,9,9,13,12316,"large","right",NA,2
"367",9478,"Digit",1,"a","Incong","a",1,0.35767,4,1,65,2,127,"small","left",NA,2
"368",9478,"Digit",1,"l","Cong","l",1,0.43866,3,9,57,0,101,"small","right",NA,2
"369",9478,"Digit",1,"l","Cong","l",1,0.47658,0,13,13,0,102,"small","right",NA,2
"370",9478,"Numerosity",1,"l","Cong","l",1,0.47912,3,2,50,1,103,"small","right",NA,2
"371",9478,"Numerosity",1,"l","Cong","l",1,0.485715,2,12,44,0,104,"small","right",NA,2
"372",9478,"Numerosity",1,"l","Cong","l",1,0.586115,2,6,38,1,119,"small","right",NA,2
"373",9478,"Digit",1,"l","Incong","l",1,0.4861,3,6,54,3,145,"small","right",NA,2
"374",9478,"Digit",1,"a","Cong","a",1,0.48937,3,0,48,1,106,"small","left",NA,2
"375",9478,"Digit",1,"l","Cong","l",1,0.49009,1,8,24,0,107,"small","right",NA,2
"376",9478,"Digit",1,"a","Cong","a",1,0.49085,1,9,25,0,108,"small","left",NA,2
"377",9478,"Numerosity",5,"l","Cong","a",0,0.602615,4,8,72,13,12298,"large","left",NA,2
"378",9478,"Numerosity",5,"a","Incong","l",0,0.326275,1,8,24,12,12299,"large","right",NA,2
"379",9478,"Numerosity",5,"l","Cong","l",1,0.49048,2,5,37,13,12329,"large","right",NA,2
"380",9478,"Digit",5,"l","Cong","l",1,0.490545,4,10,74,13,12330,"large","right",NA,2
"381",9478,"Digit",1,"a","Incong","a",1,0.36371,1,10,26,3,128,"small","left",NA,2
"382",9478,"Digit",5,"a","Cong","a",1,0.45732,1,7,23,13,12319,"large","left",NA,2
"383",9478,"Numerosity",5,"l","Cong","l",1,0.459075,3,5,53,14,12320,"large","right",NA,2
"384",9478,"Digit",5,"l","Cong","l",1,0.459945,2,10,42,13,12321,"large","right",NA,2
"385",9478,"Digit",5,"a","Cong","a",1,0.47204,2,5,37,14,12322,"large","left",NA,2
"386",9478,"Digit",5,"l","Cong","l",1,0.36799,1,12,28,14,12309,"large","right",NA,2
"387",9478,"Digit",5,"a","Cong","a",1,0.37979,1,1,17,14,12310,"large","left",NA,2
"388",9478,"Digit",5,"l","Cong","l",1,0.38453,4,11,75,14,12311,"large","right",NA,2
"389",9478,"Numerosity",5,"l","Cong","l",1,0.392395,2,14,46,14,12312,"large","right",NA,2
"390",9478,"Numerosity",5,"a","Cong","a",1,0.39254,4,9,73,13,12313,"large","left",NA,2
"391",9478,"Digit",5,"a","Cong","a",1,0.40876,0,7,7,13,12314,"large","left",NA,2
"392",9478,"Numerosity",5,"a","Incong","a",1,0.465715,1,1,17,15,12354,"large","left",NA,2
"393",9478,"Digit",5,"a","Incong","a",1,0.46773,2,15,47,12,12355,"large","left",NA,2
"394",9478,"Digit",5,"a","Cong","a",1,0.493055,4,10,74,13,12331,"large","left",NA,2
"395",9478,"Digit",5,"l","Cong","l",1,0.52004,3,14,62,13,12332,"large","right",NA,2
"396",9478,"Numerosity",5,"a","Cong","a",1,0.530545,3,1,49,13,12333,"large","left",NA,2
"397",9478,"Digit",1,"l","Incong","l",1,0.47175,0,15,15,2,143,"small","right",NA,2
"398",9478,"Digit",1,"l","Incong","l",1,0.472625,2,8,40,3,144,"small","right",NA,2
"399",9478,"Numerosity",2,"a","Cong","a",1,0.42137,4,5,69,5,4174,"small","left",NA,2
"400",9478,"Digit",2,"l","Cong","l",1,0.42728,0,12,12,5,4175,"small","right",NA,2
"401",9478,"Digit",2,"a","Cong","a",1,0.430145,1,0,16,5,4176,"small","left",NA,2
"402",9478,"Digit",2,"l","Cong","l",1,0.43647,2,3,35,5,4177,"small","right",NA,2
"403",9478,"Numerosity",2,"l","Cong","l",1,0.440765,3,4,52,6,4178,"small","right",NA,2
"404",9478,"Numerosity",2,"a","Cong","a",1,0.45743,1,2,18,5,4179,"small","left",NA,2
"405",9478,"Digit",2,"l","Cong","l",1,0.461465,1,2,18,6,4180,"small","right",NA,2
"406",9478,"Digit",2,"l","Cong","l",1,0.47784,1,12,28,5,4181,"small","right",NA,2
"407",9478,"Numerosity",5,"a","Cong","a",1,0.419575,2,9,41,14,12317,"large","left",NA,2
"408",9478,"Digit",5,"a","Cong","a",1,0.42093,3,5,53,14,12318,"large","left",NA,2
"409",9478,"Digit",2,"a","Cong","a",1,0.414425,0,2,2,6,4171,"small","left",NA,2
"410",9478,"Numerosity",2,"l","Cong","l",1,0.415845,1,14,30,6,4172,"small","right",NA,2
"411",9478,"Numerosity",2,"a","Cong","a",1,0.418945,3,14,62,5,4173,"small","left",NA,2
"412",9478,"Digit",2,"a","Cong","a",1,0.51258,4,12,76,5,4187,"small","left",NA,2
"413",9478,"Numerosity",2,"l","Cong","l",1,0.521625,4,7,71,5,4188,"small","right",NA,2
"414",9478,"Digit",2,"a","Cong","a",1,0.52506,3,15,63,5,4189,"small","left",NA,2
"415",9478,"Digit",2,"a","Cong","a",1,0.53334,1,13,29,6,4190,"small","left",NA,2
"416",9478,"Digit",2,"a","Cong","a",1,0.56154,2,11,43,6,4191,"small","left",NA,2
"417",9478,"Digit",2,"a","Cong","a",1,0.56669,4,5,69,6,4192,"small","left",NA,2
"418",9478,"Numerosity",2,"a","Cong","a",1,0.58553,0,2,2,6,4193,"small","left",NA,2
"419",9478,"Numerosity",1,"l","Cong","l",1,0.51392,4,15,79,1,112,"small","right",NA,2
"420",9478,"Digit",2,"l","Cong","l",1,0.488715,4,13,77,5,4182,"small","right",NA,2
"421",9478,"Digit",2,"l","Cong","l",1,0.49511,0,11,11,6,4183,"small","right",NA,2
"422",9478,"Numerosity",2,"l","Cong","l",1,0.495665,1,4,20,5,4184,"small","right",NA,2
"423",9478,"Digit",2,"a","Cong","a",1,0.4989,3,12,60,6,4185,"small","left",NA,2
"424",9478,"Digit",2,"l","Cong","l",1,0.506915,4,6,70,6,4186,"small","right",NA,2
"425",9478,"Numerosity",1,"a","Cong","a",1,0.57515,3,4,52,1,118,"small","left",NA,2
"426",9478,"Digit",1,"a","Incong","a",1,0.639015,3,13,61,2,158,"small","left",NA,2
"427",9478,"Digit",1,"a","Incong","a",1,0.643385,2,14,46,2,159,"small","left",NA,2
"428",9478,"Numerosity",1,"l","Incong","l",1,0.7595,1,13,29,2,160,"small","right",NA,2
"429",9478,"Digit",4,"l","Incong","l",1,0.63466,1,3,19,9,8296,"large","right",NA,2
"430",9478,"Digit",1,"l","Cong","l",1,1.13118,3,1,49,1,87,"small","right",6,2
"431",9478,"Digit",1,"a","Cong","a",1,1.268365,2,15,47,1,88,"small","left",7,2
"432",9478,"Numerosity",1,"a","Cong","l",0,0.577315,1,14,30,1,81,"small","right",NA,2
"433",9478,"Numerosity",1,"l","Incong","a",0,0.284725,0,14,14,2,82,"small","left",NA,2
"434",9478,"Numerosity",4,"l","Incong","l",1,0.77621,4,8,72,8,8301,"large","right",NA,2
"435",9478,"Numerosity",4,"l","Incong","l",1,0.802565,2,1,33,8,8302,"large","right",NA,2
"436",9478,"Digit",1,"l","Incong","a",0,0.4631,4,14,78,2,85,"small","left",NA,2
"437",9478,"Numerosity",1,"a","Incong","l",0,0.47336,0,3,3,2,86,"small","right",NA,2
"438",9478,"Numerosity",1,"a","Cong","a",1,0.27964,0,10,10,1,89,"small","left",NA,2
"439",9478,"Numerosity",1,"a","Cong","a",1,0.321555,4,0,64,1,90,"small","left",NA,2
"440",9478,"Digit",1,"a","Cong","a",1,0.340695,1,15,31,1,91,"small","left",NA,2
"441",9478,"Digit",2,"l","Incong","l",1,0.539415,3,2,50,4,4217,"small","right",NA,2
"442",9478,"Digit",2,"l","Incong","l",1,0.55234,2,11,43,7,4218,"small","right",NA,2
"443",9478,"Digit",2,"l","Incong","l",1,0.555405,4,7,71,7,4219,"small","right",NA,2
"444",9478,"Digit",2,"a","Incong","a",1,0.567945,0,0,0,7,4220,"small","left",NA,2
"445",9478,"Numerosity",2,"a","Incong","a",1,0.57533,3,11,59,7,4221,"small","left",NA,2
"446",9478,"Numerosity",2,"l","Incong","l",1,0.579305,3,12,60,7,4222,"small","right",NA,2
"447",9478,"Numerosity",2,"l","Incong","l",1,0.585685,2,13,45,7,4223,"small","right",NA,2
"448",9478,"Numerosity",2,"l","Incong","l",1,0.588205,3,10,58,4,4224,"small","right",NA,2
"449",9478,"Numerosity",2,"l","Incong","l",1,0.594965,1,4,20,4,4225,"small","right",NA,2
"450",9478,"Digit",2,"l","Incong","l",1,0.63298,2,13,45,4,4226,"small","right",NA,2
"451",9478,"Numerosity",2,"a","Incong","a",1,0.64341,4,0,64,4,4227,"small","left",NA,2
"452",9478,"Numerosity",2,"a","Incong","a",1,0.656055,1,9,25,7,4228,"small","left",NA,2
"453",9478,"Digit",2,"a","Incong","a",1,0.68912,2,7,39,7,4229,"small","left",NA,2
"454",9478,"Numerosity",2,"a","Incong","a",1,0.69755,2,15,47,7,4230,"small","left",NA,2
"455",9478,"Digit",2,"a","Incong","a",1,0.712815,4,0,64,7,4231,"small","left",NA,2
"456",9478,"Digit",2,"l","Incong","l",1,0.727825,1,3,19,4,4232,"small","right",NA,2
"457",9478,"Digit",2,"a","Incong","a",1,0.752005,3,3,51,4,4233,"small","left",NA,2
"458",9478,"Numerosity",4,"a","Cong","a",1,0.431025,2,8,40,11,8241,"large","left",NA,2
"459",9478,"Digit",5,"a","Incong","l",0,0.352925,1,9,25,12,12300,"large","right",NA,2
"460",9478,"Digit",1,"l","Cong","l",1,0.516515,1,11,27,1,113,"small","right",NA,2
"461",9478,"Digit",1,"l","Cong","l",1,0.53321,2,6,38,0,114,"small","right",NA,2
"462",9478,"Numerosity",1,"a","Cong","a",1,0.53596,2,4,36,1,115,"small","left",NA,2
"463",9478,"Digit",1,"l","Cong","l",1,0.54102,2,0,32,1,116,"small","right",NA,2
"464",9478,"Numerosity",1,"a","Cong","a",1,0.554005,3,9,57,0,117,"small","left",NA,2
"465",9478,"Numerosity",5,"l","Cong","l",1,0.355495,4,1,65,14,12308,"large","right",NA,2
"466",9478,"Numerosity",4,"a","Cong","a",1,0.511375,1,2,18,11,8249,"large","left",NA,2
"467",9478,"Numerosity",4,"a","Cong","a",1,0.519945,3,3,51,10,8250,"large","left",NA,2
"468",9478,"Numerosity",4,"l","Cong","l",1,0.539865,2,12,44,11,8251,"large","right",NA,2
"469",9478,"Digit",4,"a","Cong","a",1,0.54288,4,12,76,11,8252,"large","left",NA,2
"470",9478,"Digit",4,"a","Cong","a",1,0.551505,3,14,62,11,8253,"large","left",NA,2
"471",9478,"Numerosity",4,"l","Cong","l",1,0.568065,0,3,3,11,8254,"large","right",NA,2
"472",9478,"Numerosity",4,"a","Cong","a",1,0.56847,4,3,67,11,8255,"large","left",NA,2
"473",9478,"Digit",4,"l","Cong","l",1,0.581005,1,4,20,10,8256,"large","right",NA,2
"474",9478,"Digit",4,"l","Cong","l",1,0.585095,4,4,68,10,8257,"large","right",NA,2
"475",9478,"Numerosity",4,"a","Cong","a",1,0.585415,4,13,77,10,8258,"large","left",NA,2
"476",9478,"Digit",4,"a","Cong","a",1,0.58646,3,12,60,10,8259,"large","left",NA,2
"477",9478,"Digit",4,"a","Cong","a",1,0.60683,0,0,0,10,8260,"large","left",NA,2
"478",9478,"Numerosity",4,"l","Cong","l",1,0.65972,2,7,39,10,8261,"large","right",NA,2
"479",9478,"Numerosity",4,"a","Cong","a",1,0.67455,0,13,13,10,8262,"large","left",NA,2
"480",9478,"Digit",4,"l","Cong","l",1,0.69393,3,10,58,10,8263,"large","right",NA,2
"481",9478,"Numerosity",4,"l","Cong","l",1,0.71942,1,12,28,10,8264,"large","right",NA,2
"482",9478,"Digit",4,"a","Cong","a",1,0.764535,2,7,39,11,8265,"large","left",NA,2
"483",9478,"Numerosity",4,"a","Cong","a",1,0.771165,3,7,55,11,8266,"large","left",NA,2
"484",9478,"Digit",4,"a","Cong","a",1,0.79179,4,5,69,10,8267,"large","left",NA,2
"485",9478,"Digit",4,"l","Cong","l",1,0.87209,0,12,12,11,8268,"large","right",NA,2
"486",9478,"Numerosity",4,"l","Cong","l",1,0.89591,1,10,26,11,8269,"large","right",NA,2
"487",9478,"Digit",4,"a","Cong","a",1,0.909745,2,12,44,10,8270,"large","left",NA,2
"488",9478,"Numerosity",4,"a","Incong","a",1,0.37898,3,15,63,9,8273,"large","left",NA,2
"489",9478,"Digit",4,"l","Incong","l",1,0.385215,0,14,14,8,8274,"large","right",NA,2
"490",9478,"Numerosity",4,"a","Incong","a",1,0.414105,4,13,77,8,8275,"large","left",NA,2
"491",9478,"Numerosity",4,"a","Incong","a",1,0.41569,3,7,55,8,8276,"large","left",NA,2
"492",9478,"Numerosity",4,"a","Incong","a",1,0.419685,0,5,5,9,8277,"large","left",NA,2
"493",9478,"Digit",5,"l","Cong","l",1,0.534875,3,8,56,14,12334,"large","right",NA,2
"494",9478,"Numerosity",5,"l","Cong","l",1,0.54744,3,0,48,13,12335,"large","right",NA,2
"495",9478,"Digit",5,"l","Cong","l",1,0.55162,1,5,21,13,12336,"large","right",NA,2
"496",9478,"Numerosity",1,"l","Incong","l",1,0.502985,4,7,71,2,146,"small","right",NA,2
"497",9478,"Numerosity",1,"a","Incong","a",1,0.50328,4,1,65,2,147,"small","left",NA,2
"498",9478,"Numerosity",1,"a","Incong","a",1,0.519485,1,15,31,2,148,"small","left",NA,2
"499",9478,"Digit",4,"a","Cong","a",1,0.435865,1,6,22,11,8242,"large","left",NA,2
"500",9478,"Numerosity",5,"l","Incong","a",0,0.45225,1,7,23,15,12301,"large","left",NA,2
"501",9478,"Numerosity",5,"a","Incong","l",0,0.591545,4,14,78,12,12302,"large","right",NA,2
"502",9478,"Digit",5,"l","Cong","l",1,0.267295,0,4,4,14,12305,"large","right",NA,2
"503",9478,"Digit",5,"a","Cong","a",1,0.327995,4,15,79,14,12306,"large","left",NA,2
"504",9478,"Digit",5,"a","Cong","a",1,0.35539,0,14,14,14,12307,"large","left",NA,2
"505",9478,"Digit",4,"l","Cong","l",1,0.501215,2,6,38,10,8248,"large","right",NA,2
"506",9478,"Digit",1,"l","Incong","l",1,0.62898,1,0,16,3,157,"small","right",NA,2
"507",9478,"Digit",4,"a","Incong","a",1,0.5949,2,2,34,8,8293,"large","left",NA,2
"508",9478,"Numerosity",4,"l","Incong","l",1,0.6066,3,15,63,9,8294,"large","right",NA,2
"509",9478,"Numerosity",4,"l","Incong","l",1,0.613815,1,12,28,9,8295,"large","right",NA,2
"510",9478,"Digit",2,"a","Cong","a",1,0.326725,0,5,5,5,4163,"small","left",NA,2
"511",9478,"Digit",2,"a","Cong","a",1,0.37384,2,3,35,5,4164,"small","left",NA,2
"512",9478,"Numerosity",2,"a","Cong","a",1,0.38923,0,4,4,5,4165,"small","left",NA,2
"513",9478,"Digit",2,"l","Cong","l",1,0.38977,2,1,33,6,4166,"small","right",NA,2
"514",9478,"Numerosity",2,"l","Cong","l",1,0.39708,0,6,6,6,4167,"small","right",NA,2
"515",9478,"Digit",5,"l","Incong","l",1,0.474095,1,8,24,15,12356,"large","right",NA,2
"516",9478,"Digit",5,"l","Incong","l",1,0.49168,2,4,36,15,12357,"large","right",NA,2
"517",9478,"Numerosity",5,"a","Incong","a",1,0.49529,3,2,50,12,12358,"large","left",NA,2
"518",9478,"Digit",5,"a","Incong","a",1,0.516005,2,14,46,15,12359,"large","left",NA,2
"519",9478,"Digit",5,"l","Incong","l",1,0.52039,3,4,52,15,12360,"large","right",NA,2
"520",9478,"Digit",5,"l","Incong","l",1,0.54019,4,6,70,12,12361,"large","right",NA,2
"521",9478,"Digit",5,"l","Incong","l",1,0.541295,3,6,54,12,12362,"large","right",NA,2
"522",9478,"Digit",5,"a","Incong","a",1,0.54741,4,9,73,12,12363,"large","left",NA,2
"523",9478,"Numerosity",5,"a","Incong","a",1,0.56517,4,10,74,15,12364,"large","left",NA,2
"524",9478,"Digit",5,"a","Incong","a",1,0.56927,3,4,52,12,12365,"large","left",NA,2
"525",9478,"Digit",5,"a","Incong","a",1,0.575305,3,8,56,15,12366,"large","left",NA,2
"526",9478,"Numerosity",5,"a","Incong","a",1,0.57564,0,6,6,15,12367,"large","left",NA,2
"527",9478,"Digit",5,"l","Incong","l",1,0.579815,4,7,71,15,12368,"large","right",NA,2
"528",9478,"Numerosity",5,"l","Incong","l",1,0.585825,3,0,48,12,12369,"large","right",NA,2
"529",9478,"Numerosity",5,"l","Incong","l",1,0.60538,2,14,46,15,12370,"large","right",NA,2
"530",9478,"Numerosity",5,"a","Incong","a",1,0.60676,2,1,33,15,12371,"large","left",NA,2
"531",9478,"Numerosity",5,"l","Incong","l",1,0.660895,1,8,24,12,12372,"large","right",NA,2
"532",9478,"Numerosity",5,"l","Incong","l",1,0.668715,4,4,68,15,12373,"large","right",NA,2
"533",9478,"Digit",5,"a","Incong","a",1,0.73286,1,15,31,15,12374,"large","left",NA,2
"534",9478,"Digit",5,"l","Incong","l",1,0.735295,2,9,41,12,12375,"large","right",NA,2
"535",9478,"Digit",5,"a","Incong","a",1,0.739,0,3,3,15,12376,"large","left",NA,2
"536",9478,"Digit",5,"a","Incong","a",1,0.98019,4,2,66,15,12377,"large","left",NA,2
"537",9478,"Digit",4,"a","Cong","a",1,0.4281,0,1,1,11,8239,"large","left",NA,2
"538",9478,"Digit",4,"l","Cong","l",1,0.430285,0,13,13,10,8240,"large","right",NA,2
"539",9478,"Digit",5,"a","Cong","a",1,0.60727,2,10,42,13,12339,"large","left",NA,2
"540",9478,"Numerosity",4,"l","Cong","l",1,0.452275,4,12,76,10,8243,"large","right",NA,2
"541",9478,"Digit",4,"l","Cong","l",1,0.4686,1,2,18,11,8244,"large","right",NA,2
"542",9478,"Digit",4,"l","Cong","l",1,0.472795,3,1,49,11,8245,"large","right",NA,2
"543",9478,"Numerosity",4,"a","Cong","a",1,0.48894,0,9,9,11,8246,"large","left",NA,2
"544",9478,"Numerosity",4,"l","Cong","l",1,0.497535,0,0,0,10,8247,"large","right",NA,2
"545",9478,"Digit",2,"a","Incong","a",1,0.31137,3,9,57,7,4200,"small","left",NA,2
"546",9478,"Numerosity",2,"l","Incong","l",1,0.33767,4,2,66,4,4201,"small","right",NA,2
"547",9478,"Numerosity",2,"l","Incong","l",1,0.35199,0,11,11,4,4202,"small","right",NA,2
"548",9478,"Numerosity",2,"l","Incong","l",1,0.408055,0,7,7,7,4203,"small","right",NA,2
"549",9478,"Numerosity",2,"a","Incong","a",1,0.411245,1,6,22,4,4204,"small","left",NA,2
"550",9478,"Numerosity",2,"a","Incong","a",1,0.421755,2,11,43,4,4205,"small","left",NA,2
"551",9478,"Digit",2,"a","Incong","a",1,0.441745,1,6,22,7,4206,"small","left",NA,2
"552",9478,"Digit",2,"l","Incong","l",1,0.447955,0,9,9,4,4207,"small","right",NA,2
"553",9478,"Numerosity",2,"l","Incong","l",1,0.45245,4,9,73,7,4208,"small","right",NA,2
"554",9478,"Numerosity",2,"a","Incong","a",1,0.455075,0,10,10,7,4209,"small","left",NA,2
"555",9478,"Numerosity",1,"l","Incong","a",0,0.3541,3,3,51,2,83,"small","left",NA,2
"556",9478,"Numerosity",1,"l","Incong","a",0,0.402595,1,9,25,3,84,"small","left",NA,2
"557",9478,"Digit",2,"l","Incong","l",1,0.486605,3,13,61,7,4212,"small","right",NA,2
"558",9478,"Numerosity",2,"a","Incong","a",1,0.494645,4,10,74,7,4213,"small","left",NA,2
"559",9478,"Digit",2,"l","Incong","l",1,0.507365,0,2,2,7,4214,"small","right",NA,2
"560",9478,"Numerosity",2,"l","Incong","l",1,0.52195,2,9,41,4,4215,"small","right",NA,2
"561",9478,"Digit",2,"a","Incong","a",1,0.53729,2,12,44,4,4216,"small","left",NA,2
"562",9478,"Numerosity",4,"a","Cong","l",0,0.548045,1,10,26,10,8223,"large","right",NA,2
"563",9478,"Numerosity",4,"l","Cong","a",0,0.558075,4,15,79,11,8224,"large","left",NA,2
"564",9478,"Digit",4,"l","Incong","a",0,0.341955,2,0,32,9,8225,"large","left",NA,2
"565",9478,"Digit",4,"l","Incong","a",0,0.37426,0,10,10,9,8226,"large","left",NA,2
"566",9478,"Numerosity",4,"l","Incong","a",0,0.43563,0,11,11,8,8227,"large","left",NA,2
"567",9478,"Digit",4,"a","Incong","l",0,0.4467,2,4,36,9,8228,"large","right",NA,2
"568",9478,"Numerosity",4,"a","Incong","l",0,0.452055,2,15,47,9,8229,"large","right",NA,2
"569",9478,"Numerosity",4,"a","Incong","l",0,0.53585,0,15,15,8,8230,"large","right",NA,2
"570",9478,"Digit",4,"a","Incong","l",0,0.630825,4,3,67,8,8231,"large","right",NA,2
"571",9478,"Digit",4,"l","Incong","a",0,0.82219,4,8,72,8,8232,"large","left",NA,2
"572",9478,"Numerosity",4,"l","Cong","l",1,0.385725,3,13,61,11,8234,"large","right",NA,2
"573",9478,"Numerosity",4,"a","Cong","a",1,0.410295,2,5,37,10,8235,"large","left",NA,2
"574",9478,"Numerosity",4,"l","Cong","l",1,0.414125,3,1,49,10,8236,"large","right",NA,2
"575",9478,"Digit",4,"l","Cong","l",1,0.414205,4,3,67,11,8237,"large","right",NA,2
"576",9478,"Digit",4,"l","Cong","l",1,0.422815,2,13,45,11,8238,"large","right",NA,2
"577",9478,"Numerosity",5,"l","Cong","l",1,0.55304,0,1,1,14,12337,"large","right",NA,2
"578",9478,"Numerosity",5,"a","Cong","a",1,0.586015,1,5,21,13,12338,"large","left",NA,2
"579",9478,"Digit",4,"a","Incong","a",1,0.44298,4,0,64,9,8282,"large","left",NA,2
"580",9478,"Numerosity",2,"l","Cong","l",1,0.597075,0,8,8,5,4194,"small","right",NA,2
"581",9478,"Numerosity",2,"a","Cong","a",1,0.7359,2,3,35,6,4195,"small","left",NA,2
"582",9478,"Numerosity",2,"l","Cong","l",1,0.863215,3,9,57,5,4196,"small","right",NA,2
"583",9478,"Numerosity",2,"a","Cong","a",1,0.904365,4,6,70,6,4197,"small","left",NA,2
"584",9478,"Digit",2,"a","Incong","a",1,0.270095,1,1,17,4,4199,"small","left",NA,2
"585",9478,"Numerosity",1,"l","Incong","l",1,0.61572,0,13,13,3,154,"small","right",NA,2
"586",9478,"Digit",1,"l","Incong","l",1,0.61915,4,11,75,3,155,"small","right",NA,2
"587",9478,"Numerosity",1,"a","Incong","a",1,0.620165,1,11,27,3,156,"small","left",NA,2
"588",9478,"Digit",4,"a","Cong","a",1,1.007245,1,10,26,10,8233,"large","left",7,2
"589",9478,"Numerosity",4,"l","Incong","l",1,1.044,1,13,29,8,8271,"large","right",4,2
"590",9478,"Digit",4,"a","Incong","a",1,1.23141,3,7,55,8,8272,"large","left",6,2
"591",9478,"Numerosity",5,"l","Incong","l",1,0.43791,0,15,15,15,12350,"large","right",NA,2
"592",9478,"Digit",5,"l","Incong","l",1,0.44549,0,15,15,12,12351,"large","right",NA,2
"593",9478,"Numerosity",5,"l","Incong","l",1,0.46133,2,3,35,12,12352,"large","right",NA,2
"594",9478,"Numerosity",5,"l","Incong","l",1,0.46319,4,14,78,12,12353,"large","right",NA,2
"595",9478,"Digit",1,"l","Incong","l",1,0.52286,1,14,30,2,149,"small","right",NA,2
"596",9478,"Numerosity",2,"a","Cong","a",1,0.402055,1,3,19,6,4168,"small","left",NA,2
"597",9478,"Digit",2,"l","Cong","l",1,0.4057,3,3,51,5,4169,"small","right",NA,2
"598",9478,"Numerosity",2,"l","Cong","l",1,0.410205,2,0,32,6,4170,"small","right",NA,2
"599",9478,"Numerosity",5,"l","Cong","l",1,1.021375,1,15,31,14,12304,"large","right",7,2
"600",9478,"Digit",4,"l","Incong","l",1,0.54496,3,5,53,8,8289,"large","right",NA,2
"601",9478,"Digit",4,"a","Incong","a",1,0.424285,0,4,4,8,8278,"large","left",NA,2
"602",9478,"Digit",4,"l","Incong","l",1,0.42528,3,11,59,9,8279,"large","right",NA,2
"603",9478,"Numerosity",4,"a","Incong","a",1,0.43725,1,7,23,9,8280,"large","left",NA,2
"604",9478,"Digit",2,"a","Incong","l",0,0.63972,4,9,73,4,4160,"small","right",NA,2
"605",9478,"Numerosity",4,"a","Incong","a",1,0.43896,4,4,68,9,8281,"large","left",NA,2
"606",9478,"Numerosity",2,"a","Incong","l",0,0.42127,3,14,62,4,4159,"small","right",NA,2
"607",9478,"Digit",4,"a","Incong","a",1,0.443965,0,5,5,9,8283,"large","left",NA,2
"608",9478,"Numerosity",2,"l","Incong","l",1,1.33603,1,0,16,7,4198,"small","right",6,2
"609",9478,"Numerosity",1,"a","Incong","a",1,0.525425,2,10,42,3,150,"small","left",NA,2
"610",9478,"Numerosity",1,"a","Incong","a",1,0.54218,3,10,58,3,151,"small","left",NA,2
"611",9478,"Digit",1,"a","Incong","a",1,0.59147,2,1,33,3,152,"small","left",NA,2
"612",9478,"Numerosity",1,"l","Incong","l",1,0.60665,3,8,56,3,153,"small","right",NA,2
"613",9478,"Digit",5,"l","Incong","l",1,0.321365,0,6,6,15,12342,"large","right",NA,2
"614",9478,"Digit",4,"l","Incong","l",1,0.55612,1,7,23,8,8290,"large","right",NA,2
"615",9478,"Numerosity",4,"l","Incong","l",1,0.58014,3,8,56,8,8291,"large","right",NA,2
"616",9478,"Digit",4,"a","Incong","a",1,0.58259,3,15,63,9,8292,"large","left",NA,2
"617",9478,"Numerosity",5,"l","Incong","l",1,0.41222,0,2,2,12,12346,"large","right",NA,2
"618",9478,"Numerosity",2,"a","Cong","a",1,0.248605,2,10,42,5,4162,"small","left",NA,2
"619",9478,"Numerosity",5,"a","Incong","a",1,0.420505,3,11,59,15,12348,"large","left",NA,2
"620",9478,"Digit",2,"l","Cong","l",1,1.351575,3,0,48,6,4161,"small","right",7,2
"621",9478,"Digit",2,"l","Incong","a",0,0.416125,1,13,29,7,4158,"small","left",NA,2
"622",9478,"Numerosity",4,"l","Incong","l",1,0.444365,0,12,12,9,8284,"large","right",NA,2
"623",9478,"Digit",2,"l","Incong","l",1,0.47831,4,8,72,4,4210,"small","right",NA,2
"624",9478,"Numerosity",2,"a","Incong","a",1,0.48288,0,5,5,4,4211,"small","left",NA,2
"625",9478,"Digit",5,"l","Cong","l",1,1.00375,2,8,40,14,12303,"large","right",6,2
"626",9478,"Numerosity",4,"a","Incong","a",1,0.50331,1,11,27,8,8288,"large","left",NA,2
"627",9478,"Digit",5,"l","Incong","l",1,0.376105,1,11,27,12,12343,"large","right",NA,2
"628",9478,"Numerosity",5,"a","Incong","a",1,0.37693,0,12,12,12,12344,"large","left",NA,2
"629",9478,"Numerosity",5,"a","Incong","a",1,0.378765,2,11,43,12,12345,"large","left",NA,2
"630",9478,"Digit",2,"a","Incong","l",0,0.40203,0,11,11,4,4157,"small","right",NA,2
"631",9478,"Digit",5,"a","Incong","a",1,0.41363,0,8,8,12,12347,"large","left",NA,2
"632",9478,"Numerosity",2,"l","Cong","a",0,0.458505,2,13,45,5,4155,"small","left",NA,2
"633",9478,"Numerosity",5,"l","Incong","l",1,0.42609,3,12,60,15,12349,"large","right",NA,2
"634",9478,"Numerosity",5,"a","Cong","a",1,0.740085,4,11,75,14,12341,"large","left",NA,2
"635",9478,"Numerosity",4,"a","Incong","a",1,0.45352,2,6,38,8,8285,"large","left",NA,2
"636",9478,"Numerosity",5,"a","Cong","a",1,0.642625,1,1,17,14,12340,"large","left",NA,2
"637",9478,"Digit",4,"a","Incong","a",1,0.47379,1,5,21,9,8287,"large","left",NA,2
"638",9478,"Numerosity",2,"l","Cong","a",0,0.41429,4,12,76,6,4154,"small","left",NA,2
"639",9478,"Digit",4,"l","Incong","l",1,0.46482,4,13,77,9,8286,"large","right",NA,2
"640",9478,"Numerosity",2,"a","Cong","l",0,0.471175,3,6,54,6,4156,"small","right",NA,2
"641",9565,"Numerosity",1,"l","Incong","a",0,0.81887,2,11,43,2,165,"small","left",NA,3
"642",9565,"Numerosity",2,"l","Cong","l",1,0.40832,4,15,79,5,4255,"small","right",NA,3
"643",9565,"Digit",2,"l","Cong","l",1,0.41682,1,8,24,6,4259,"small","right",NA,3
"644",9565,"Digit",2,"l","Cong","l",1,0.47584,2,0,32,5,4265,"small","right",NA,3
"645",9565,"Digit",2,"l","Cong","l",1,0.427605,1,0,16,5,4261,"small","right",NA,3
"646",9565,"Digit",2,"l","Cong","l",1,0.468695,4,3,67,6,4264,"small","right",NA,3
"647",9565,"Numerosity",4,"l","Incong","l",1,0.769175,0,11,11,9,8381,"large","right",NA,3
"648",9565,"Numerosity",1,"a","Cong","a",1,0.393165,2,10,42,1,177,"small","left",NA,3
"649",9565,"Digit",1,"l","Cong","l",1,0.395085,2,2,34,1,178,"small","right",NA,3
"650",9565,"Numerosity",2,"a","Cong","a",1,0.48459,2,4,36,6,4266,"small","left",NA,3
"651",9565,"Numerosity",2,"a","Cong","a",1,0.48973,4,0,64,5,4267,"small","left",NA,3
"652",9565,"Digit",2,"l","Cong","l",1,0.51051,3,0,48,6,4268,"small","right",NA,3
"653",9565,"Numerosity",2,"a","Cong","a",1,0.408335,0,3,3,6,4256,"small","left",NA,3
"654",9565,"Digit",2,"l","Cong","l",1,0.416095,4,2,66,5,4257,"small","right",NA,3
"655",9565,"Numerosity",2,"l","Cong","l",1,0.416235,3,3,51,6,4258,"small","right",NA,3
"656",9565,"Digit",1,"a","Cong","a",1,0.44403,2,3,35,1,187,"small","left",NA,3
"657",9565,"Digit",2,"l","Cong","l",1,0.42589,0,1,1,5,4260,"small","right",NA,3
"658",9565,"Digit",1,"a","Cong","a",1,0.44661,3,8,56,1,189,"small","left",NA,3
"659",9565,"Numerosity",2,"l","Cong","l",1,0.43477,0,15,15,5,4262,"small","right",NA,3
"660",9565,"Numerosity",2,"a","Cong","a",1,0.45117,2,0,32,5,4263,"small","left",NA,3
"661",9565,"Numerosity",4,"l","Incong","l",1,0.46086,1,15,31,8,8367,"large","right",NA,3
"662",9565,"Numerosity",4,"l","Incong","l",1,0.461555,3,9,57,8,8368,"large","right",NA,3
"663",9565,"Numerosity",1,"l","Cong","l",1,0.398605,1,13,29,0,179,"small","right",NA,3
"664",9565,"Numerosity",1,"l","Cong","l",1,0.401805,0,9,9,1,180,"small","right",NA,3
"665",9565,"Digit",2,"a","Cong","a",1,0.407165,2,15,47,5,4254,"small","left",NA,3
"666",9565,"Digit",1,"a","Cong","a",1,0.35989,4,1,65,0,169,"small","left",NA,3
"667",9565,"Numerosity",1,"a","Cong","a",1,0.362695,2,9,41,0,170,"small","left",NA,3
"668",9565,"Numerosity",1,"a","Cong","a",1,0.375415,4,10,74,0,171,"small","left",NA,3
"669",9565,"Digit",1,"a","Cong","a",1,0.382855,2,5,37,0,172,"small","left",NA,3
"670",9565,"Digit",1,"a","Cong","a",1,0.383575,0,13,13,1,173,"small","left",NA,3
"671",9565,"Digit",1,"l","Cong","l",1,0.386015,3,7,55,0,174,"small","right",NA,3
"672",9565,"Numerosity",1,"l","Cong","l",1,0.38954,3,0,48,0,175,"small","right",NA,3
"673",9565,"Numerosity",1,"a","Cong","a",1,0.39218,0,15,15,0,176,"small","left",NA,3
"674",9565,"Numerosity",4,"l","Incong","l",1,0.702605,3,15,63,9,8380,"large","right",NA,3
"675",9565,"Digit",1,"a","Cong","a",1,0.645375,1,5,21,1,204,"small","left",NA,3
"676",9565,"Numerosity",4,"l","Incong","l",1,0.90704,4,9,73,8,8382,"large","right",NA,3
"677",9565,"Numerosity",2,"l","Cong","l",1,0.401565,2,3,35,6,4252,"small","right",NA,3
"678",9565,"Numerosity",1,"a","Cong","a",1,0.401815,4,6,70,1,181,"small","left",NA,3
"679",9565,"Numerosity",1,"a","Cong","a",1,0.40218,3,0,48,1,182,"small","left",NA,3
"680",9565,"Digit",1,"a","Cong","a",1,0.419065,3,5,53,0,183,"small","left",NA,3
"681",9565,"Numerosity",1,"l","Cong","l",1,0.42119,0,8,8,0,184,"small","right",NA,3
"682",9565,"Digit",1,"l","Cong","l",1,0.43479,0,5,5,0,185,"small","right",NA,3
"683",9565,"Numerosity",1,"l","Cong","l",1,0.438695,2,1,33,0,186,"small","right",NA,3
"684",9565,"Numerosity",1,"a","Cong","a",1,0.446555,3,13,61,0,188,"small","left",NA,3
"685",9565,"Digit",4,"l","Incong","l",1,0.444155,2,12,44,8,8365,"large","right",NA,3
"686",9565,"Digit",4,"l","Incong","l",1,0.45217,2,13,45,9,8366,"large","right",NA,3
"687",9565,"Digit",1,"l","Incong","l",1,0.42278,0,11,11,3,217,"small","right",NA,3
"688",9565,"Numerosity",1,"a","Incong","a",1,0.423995,0,6,6,2,218,"small","left",NA,3
"689",9565,"Digit",1,"a","Incong","a",1,0.424755,0,9,9,2,219,"small","left",NA,3
"690",9565,"Digit",1,"a","Incong","a",1,0.42687,0,15,15,3,220,"small","left",NA,3
"691",9565,"Numerosity",2,"l","Cong","l",1,0.40557,1,1,17,6,4253,"small","right",NA,3
"692",9565,"Digit",1,"l","Cong","l",1,0.359105,1,11,27,0,168,"small","right",NA,3
"693",9565,"Numerosity",1,"l","Incong","l",1,0.36959,1,10,26,3,210,"small","right",NA,3
"694",9565,"Numerosity",1,"l","Incong","l",1,0.377225,4,5,69,2,211,"small","right",NA,3
"695",9565,"Digit",1,"l","Incong","l",1,0.377475,1,5,21,3,212,"small","right",NA,3
"696",9565,"Digit",1,"a","Incong","a",1,0.404355,4,5,69,2,213,"small","left",NA,3
"697",9565,"Digit",1,"l","Incong","l",1,0.409715,4,0,64,2,214,"small","right",NA,3
"698",9565,"Digit",1,"l","Incong","l",1,0.410225,4,9,73,3,215,"small","right",NA,3
"699",9565,"Numerosity",1,"l","Incong","l",1,0.41715,1,2,18,2,216,"small","right",NA,3
"700",9565,"Numerosity",5,"a","Incong","l",0,0.333225,4,8,72,12,12380,"large","right",NA,3
"701",9565,"Digit",1,"l","Cong","l",1,0.451945,4,1,65,0,190,"small","right",NA,3
"702",9565,"Numerosity",1,"a","Cong","a",1,0.45685,1,1,17,1,191,"small","left",NA,3
"703",9565,"Numerosity",4,"l","Incong","l",1,0.489705,1,4,20,9,8369,"large","right",NA,3
"704",9565,"Numerosity",1,"a","Incong","a",1,0.442585,3,4,52,3,221,"small","left",NA,3
"705",9565,"Numerosity",1,"l","Incong","l",1,0.45151,2,6,38,3,222,"small","right",NA,3
"706",9565,"Numerosity",1,"l","Incong","l",1,0.457775,3,3,51,2,223,"small","right",NA,3
"707",9565,"Numerosity",1,"a","Incong","a",1,0.469035,2,0,32,3,224,"small","left",NA,3
"708",9565,"Numerosity",1,"a","Incong","a",1,0.479695,0,1,1,3,225,"small","left",NA,3
"709",9565,"Numerosity",1,"a","Incong","a",1,0.481765,3,13,61,2,226,"small","left",NA,3
"710",9565,"Digit",1,"a","Incong","a",1,0.483025,2,0,32,2,227,"small","left",NA,3
"711",9565,"Numerosity",5,"l","Cong","a",0,0.582315,3,9,57,14,12378,"large","left",NA,3
"712",9565,"Numerosity",5,"l","Incong","a",0,0.30674,3,8,56,12,12379,"large","left",NA,3
"713",9565,"Digit",4,"l","Incong","l",1,0.692515,4,8,72,9,8379,"large","right",NA,3
"714",9565,"Digit",1,"l","Cong","l",1,0.591735,0,6,6,1,203,"small","right",NA,3
"715",9565,"Digit",2,"a","Cong","a",1,0.379085,2,8,40,6,4248,"small","left",NA,3
"716",9565,"Numerosity",2,"l","Cong","l",1,0.39229,4,7,71,6,4249,"small","right",NA,3
"717",9565,"Digit",2,"a","Cong","a",1,0.39532,1,1,17,6,4250,"small","left",NA,3
"718",9565,"Digit",2,"a","Cong","a",1,0.40048,0,6,6,6,4251,"small","left",NA,3
"719",9565,"Digit",5,"l","Incong","l",1,0.41867,3,3,51,15,12439,"large","right",NA,3
"720",9565,"Digit",5,"a","Incong","a",1,0.427105,2,5,37,15,12440,"large","left",NA,3
"721",9565,"Numerosity",5,"l","Incong","l",1,0.428355,3,1,49,15,12441,"large","right",NA,3
"722",9565,"Digit",5,"l","Incong","l",1,0.432655,4,6,70,12,12442,"large","right",NA,3
"723",9565,"Digit",5,"a","Incong","a",1,0.435945,0,14,14,12,12443,"large","left",NA,3
"724",9565,"Numerosity",5,"l","Incong","l",1,0.442175,1,2,18,12,12444,"large","right",NA,3
"725",9565,"Digit",5,"l","Incong","l",1,0.453505,1,14,30,15,12445,"large","right",NA,3
"726",9565,"Digit",5,"a","Incong","a",1,0.468505,2,13,45,12,12446,"large","left",NA,3
"727",9565,"Numerosity",5,"l","Incong","l",1,0.470255,1,6,22,15,12447,"large","right",NA,3
"728",9565,"Digit",5,"a","Incong","a",1,0.492915,3,3,51,15,12448,"large","left",NA,3
"729",9565,"Digit",5,"a","Incong","a",1,0.51007,3,1,49,12,12449,"large","left",NA,3
"730",9565,"Digit",5,"a","Incong","a",1,0.51872,4,13,77,15,12450,"large","left",NA,3
"731",9565,"Digit",5,"l","Incong","l",1,0.519255,3,2,50,12,12451,"large","right",NA,3
"732",9565,"Digit",5,"a","Incong","a",1,0.51947,1,14,30,12,12452,"large","left",NA,3
"733",9565,"Numerosity",5,"a","Incong","a",1,0.541165,2,15,47,15,12453,"large","left",NA,3
"734",9565,"Digit",5,"a","Incong","a",1,0.560195,0,3,3,15,12454,"large","left",NA,3
"735",9565,"Digit",2,"a","Cong","a",1,0.51231,3,10,58,6,4269,"small","left",NA,3
"736",9565,"Digit",2,"l","Cong","l",1,0.516005,3,14,62,5,4270,"small","right",NA,3
"737",9565,"Numerosity",2,"l","Cong","l",1,0.51912,0,14,14,6,4271,"small","right",NA,3
"738",9565,"Numerosity",1,"l","Incong","l",1,0.50879,3,10,58,3,228,"small","right",NA,3
"739",9565,"Digit",1,"a","Incong","a",1,0.52075,1,10,26,2,229,"small","left",NA,3
"740",9565,"Numerosity",1,"a","Incong","a",1,0.523885,1,10,26,2,230,"small","left",NA,3
"741",9565,"Digit",1,"a","Incong","a",1,0.546515,3,11,59,2,231,"small","left",NA,3
"742",9565,"Numerosity",1,"a","Incong","a",1,0.558525,4,13,77,2,232,"small","left",NA,3
"743",9565,"Numerosity",1,"a","Cong","a",1,0.459215,0,4,4,1,192,"small","left",NA,3
"744",9565,"Digit",4,"a","Incong","a",1,0.50066,4,4,68,8,8370,"large","left",NA,3
"745",9565,"Digit",4,"l","Incong","l",1,0.502885,3,12,60,8,8371,"large","right",NA,3
"746",9565,"Numerosity",4,"l","Incong","l",1,0.505545,2,13,45,9,8372,"large","right",NA,3
"747",9565,"Digit",4,"l","Incong","l",1,0.50687,0,8,8,8,8373,"large","right",NA,3
"748",9565,"Numerosity",4,"l","Incong","l",1,0.506875,0,5,5,8,8374,"large","right",NA,3
"749",9565,"Digit",4,"l","Incong","l",1,0.513455,1,4,20,8,8375,"large","right",NA,3
"750",9565,"Numerosity",4,"l","Incong","l",1,0.53765,4,2,66,9,8376,"large","right",NA,3
"751",9565,"Digit",4,"a","Incong","a",1,0.56448,2,15,47,8,8377,"large","left",NA,3
"752",9565,"Digit",4,"l","Incong","l",1,0.574605,1,8,24,9,8378,"large","right",NA,3
"753",9565,"Digit",1,"a","Cong","a",1,0.57982,4,11,75,1,202,"small","left",NA,3
"754",9565,"Numerosity",2,"a","Cong","a",1,0.37906,3,5,53,5,4247,"small","left",NA,3
"755",9565,"Digit",1,"a","Incong","l",0,0.56316,1,2,18,3,164,"small","right",NA,3
"756",9565,"Digit",2,"a","Incong","a",1,0.41139,1,12,28,7,4290,"small","left",NA,3
"757",9565,"Digit",2,"a","Incong","a",1,0.429025,0,11,11,4,4291,"small","left",NA,3
"758",9565,"Numerosity",1,"l","Cong","l",1,0.32741,2,8,40,1,166,"small","right",NA,3
"759",9565,"Digit",1,"a","Cong","a",1,0.35264,0,7,7,0,167,"small","left",NA,3
"760",9565,"Digit",4,"l","Cong","a",0,0.33512,0,0,0,11,8303,"large","left",NA,3
"761",9565,"Numerosity",4,"a","Cong","l",0,0.37739,0,10,10,10,8304,"large","right",NA,3
"762",9565,"Numerosity",4,"a","Cong","l",0,0.413435,1,11,27,10,8305,"large","right",NA,3
"763",9565,"Digit",4,"a","Cong","l",0,0.601275,2,7,39,11,8306,"large","right",NA,3
"764",9565,"Digit",4,"a","Incong","l",0,0.316455,0,2,2,8,8307,"large","right",NA,3
"765",9565,"Digit",4,"a","Incong","l",0,0.327425,1,13,29,9,8308,"large","right",NA,3
"766",9565,"Digit",4,"a","Incong","l",0,0.35347,2,6,38,9,8309,"large","right",NA,3
"767",9565,"Digit",4,"l","Incong","a",0,0.410875,4,0,64,8,8310,"large","left",NA,3
"768",9565,"Numerosity",4,"a","Incong","l",0,0.443945,1,12,28,9,8311,"large","right",NA,3
"769",9565,"Numerosity",4,"a","Incong","l",0,0.527075,0,5,5,9,8312,"large","right",NA,3
"770",9565,"Digit",4,"l","Incong","a",0,0.569985,3,9,57,9,8313,"large","left",NA,3
"771",9565,"Digit",4,"a","Cong","a",1,0.28752,0,9,9,11,8314,"large","left",NA,3
"772",9565,"Numerosity",4,"a","Cong","a",1,0.29228,2,4,36,10,8315,"large","left",NA,3
"773",9565,"Digit",4,"a","Cong","a",1,0.301215,2,4,36,10,8316,"large","left",NA,3
"774",9565,"Digit",4,"l","Cong","l",1,0.31015,0,1,1,10,8317,"large","right",NA,3
"775",9565,"Numerosity",4,"l","Cong","l",1,0.343155,3,1,49,11,8318,"large","right",NA,3
"776",9565,"Numerosity",4,"l","Cong","l",1,0.344275,4,7,71,11,8319,"large","right",NA,3
"777",9565,"Digit",4,"l","Cong","l",1,0.34725,4,3,67,11,8320,"large","right",NA,3
"778",9565,"Numerosity",4,"l","Cong","l",1,0.35219,1,13,29,10,8321,"large","right",NA,3
"779",9565,"Numerosity",4,"l","Cong","l",1,0.35789,4,3,67,10,8322,"large","right",NA,3
"780",9565,"Numerosity",4,"l","Cong","l",1,0.361655,3,12,60,10,8323,"large","right",NA,3
"781",9565,"Numerosity",4,"a","Cong","a",1,0.362555,4,8,72,11,8324,"large","left",NA,3
"782",9565,"Numerosity",4,"a","Cong","a",1,0.37023,2,15,47,11,8325,"large","left",NA,3
"783",9565,"Digit",1,"l","Incong","l",1,0.56139,3,12,60,2,233,"small","right",NA,3
"784",9565,"Numerosity",1,"l","Cong","l",1,0.465285,4,0,64,0,193,"small","right",NA,3
"785",9565,"Numerosity",1,"l","Cong","l",1,0.47625,1,9,25,1,194,"small","right",NA,3
"786",9565,"Digit",1,"l","Cong","l",1,0.476925,3,5,53,1,195,"small","right",NA,3
"787",9565,"Digit",1,"a","Cong","a",1,0.484685,1,11,27,0,196,"small","left",NA,3
"788",9565,"Numerosity",1,"l","Cong","l",1,0.500265,4,12,76,1,197,"small","right",NA,3
"789",9565,"Numerosity",1,"a","Cong","a",1,0.50528,1,0,16,0,198,"small","left",NA,3
"790",9565,"Digit",1,"l","Cong","l",1,0.505485,1,1,17,1,199,"small","right",NA,3
"791",9565,"Digit",1,"l","Cong","l",1,0.53602,4,6,70,1,200,"small","right",NA,3
"792",9565,"Numerosity",1,"l","Cong","l",1,0.548,3,11,59,1,201,"small","right",NA,3
"793",9565,"Numerosity",2,"a","Cong","a",1,0.373465,1,3,19,6,4246,"small","left",NA,3
"794",9565,"Numerosity",4,"a","Cong","a",1,0.4678,0,4,4,11,8337,"large","left",NA,3
"795",9565,"Numerosity",4,"l","Cong","l",1,0.468225,1,15,31,11,8338,"large","right",NA,3
"796",9565,"Digit",4,"a","Cong","a",1,0.501405,3,13,61,11,8339,"large","left",NA,3
"797",9565,"Digit",1,"a","Incong","a",1,0.278005,3,4,52,3,206,"small","left",NA,3
"798",9565,"Numerosity",1,"l","Incong","l",1,0.29212,4,1,65,3,207,"small","right",NA,3
"799",9565,"Digit",1,"l","Incong","l",1,0.334535,1,6,22,2,208,"small","right",NA,3
"800",9565,"Digit",1,"l","Incong","l",1,0.339465,0,4,4,2,209,"small","right",NA,3
"801",9565,"Digit",4,"l","Cong","l",1,0.536525,2,7,39,10,8344,"large","right",NA,3
"802",9565,"Digit",4,"a","Cong","a",1,0.554725,1,15,31,11,8345,"large","left",NA,3
"803",9565,"Digit",4,"l","Cong","l",1,0.56419,1,7,23,10,8346,"large","right",NA,3
"804",9565,"Numerosity",4,"l","Cong","l",1,0.66523,0,2,2,10,8347,"large","right",NA,3
"805",9565,"Digit",4,"l","Cong","l",1,0.76226,2,9,41,11,8348,"large","right",NA,3
"806",9565,"Digit",4,"l","Cong","l",1,0.956615,4,14,78,10,8349,"large","right",NA,3
"807",9565,"Numerosity",4,"a","Incong","a",1,0.343875,3,6,54,9,8350,"large","left",NA,3
"808",9565,"Numerosity",4,"a","Incong","a",1,0.35354,2,12,44,8,8351,"large","left",NA,3
"809",9565,"Digit",4,"a","Incong","a",1,0.373795,0,10,10,9,8352,"large","left",NA,3
"810",9565,"Numerosity",4,"a","Incong","a",1,0.378615,3,14,62,8,8353,"large","left",NA,3
"811",9565,"Numerosity",4,"a","Incong","a",1,0.40809,1,4,20,8,8354,"large","left",NA,3
"812",9565,"Numerosity",4,"a","Incong","a",1,0.408695,2,5,37,9,8355,"large","left",NA,3
"813",9565,"Digit",4,"a","Incong","a",1,0.40955,4,10,74,9,8356,"large","left",NA,3
"814",9565,"Numerosity",4,"a","Incong","a",1,0.41121,4,14,78,8,8357,"large","left",NA,3
"815",9565,"Digit",4,"l","Incong","l",1,0.41131,0,10,10,9,8358,"large","right",NA,3
"816",9565,"Numerosity",4,"a","Incong","a",1,0.42094,4,15,79,9,8359,"large","left",NA,3
"817",9565,"Digit",4,"a","Incong","a",1,0.431825,1,2,18,8,8360,"large","left",NA,3
"818",9565,"Digit",4,"a","Incong","a",1,0.436465,3,4,52,8,8361,"large","left",NA,3
"819",9565,"Digit",4,"a","Incong","a",1,0.436775,3,8,56,9,8362,"large","left",NA,3
"820",9565,"Numerosity",4,"l","Incong","l",1,0.441675,2,6,38,8,8363,"large","right",NA,3
"821",9565,"Numerosity",4,"a","Incong","a",1,0.442785,0,13,13,8,8364,"large","left",NA,3
"822",9565,"Numerosity",2,"a","Cong","l",0,0.76053,3,8,56,6,4234,"small","right",NA,3
"823",9565,"Numerosity",4,"a","Cong","a",1,0.381875,3,2,50,11,8326,"large","left",NA,3
"824",9565,"Numerosity",1,"a","Incong","a",1,0.56902,4,14,78,3,234,"small","left",NA,3
"825",9565,"Digit",1,"l","Incong","l",1,0.58888,3,6,54,3,235,"small","right",NA,3
"826",9565,"Digit",1,"a","Incong","a",1,0.594595,2,2,34,3,236,"small","left",NA,3
"827",9565,"Numerosity",1,"a","Incong","a",1,0.62552,2,14,46,2,237,"small","left",NA,3
"828",9565,"Numerosity",1,"a","Incong","a",1,0.642245,1,7,23,3,238,"small","left",NA,3
"829",9565,"Numerosity",1,"l","Incong","l",1,0.799265,0,0,0,3,239,"small","right",NA,3
"830",9565,"Digit",1,"a","Incong","a",1,0.934475,4,9,73,3,240,"small","left",NA,3
"831",9565,"Digit",2,"a","Cong","a",1,0.355685,0,5,5,5,4244,"small","left",NA,3
"832",9565,"Digit",2,"a","Cong","a",1,0.364485,4,15,79,5,4245,"small","left",NA,3
"833",9565,"Digit",4,"l","Cong","l",1,0.464275,1,15,31,11,8336,"large","right",NA,3
"834",9565,"Numerosity",5,"a","Incong","a",1,0.3783,1,6,22,15,12433,"large","left",NA,3
"835",9565,"Digit",5,"l","Incong","l",1,0.382315,1,13,29,12,12434,"large","right",NA,3
"836",9565,"Digit",5,"a","Incong","a",1,0.382555,4,7,71,12,12435,"large","left",NA,3
"837",9565,"Numerosity",5,"a","Incong","a",1,0.391445,0,10,10,12,12436,"large","left",NA,3
"838",9565,"Numerosity",5,"l","Incong","l",1,0.408365,0,12,12,12,12437,"large","right",NA,3
"839",9565,"Digit",5,"l","Incong","l",1,0.417015,4,12,76,15,12438,"large","right",NA,3
"840",9565,"Numerosity",4,"a","Cong","a",1,0.51879,1,12,28,11,8342,"large","left",NA,3
"841",9565,"Digit",2,"l","Incong","l",1,0.431655,0,7,7,7,4292,"small","right",NA,3
"842",9565,"Digit",2,"l","Incong","l",1,0.44248,4,11,75,7,4293,"small","right",NA,3
"843",9565,"Numerosity",2,"l","Incong","l",1,0.4431,1,9,25,7,4294,"small","right",NA,3
"844",9565,"Numerosity",2,"l","Incong","l",1,0.44582,3,15,63,4,4295,"small","right",NA,3
"845",9565,"Numerosity",2,"a","Incong","a",1,0.449115,3,5,53,7,4296,"small","left",NA,3
"846",9565,"Numerosity",2,"a","Incong","a",1,0.4542,2,2,34,7,4297,"small","left",NA,3
"847",9565,"Digit",2,"l","Incong","l",1,0.46119,3,2,50,4,4298,"small","right",NA,3
"848",9565,"Digit",2,"a","Incong","a",1,0.46138,4,2,66,4,4299,"small","left",NA,3
"849",9565,"Numerosity",2,"l","Incong","l",1,0.47984,3,2,50,7,4300,"small","right",NA,3
"850",9565,"Numerosity",2,"a","Incong","a",1,0.489595,1,14,30,7,4301,"small","left",NA,3
"851",9565,"Numerosity",2,"l","Incong","l",1,0.493245,2,2,34,7,4302,"small","right",NA,3
"852",9565,"Digit",2,"a","Incong","a",1,0.49772,4,10,74,7,4303,"small","left",NA,3
"853",9565,"Digit",2,"a","Incong","a",1,0.5016,3,6,54,4,4304,"small","left",NA,3
"854",9565,"Numerosity",2,"a","Incong","a",1,0.502285,1,8,24,4,4305,"small","left",NA,3
"855",9565,"Numerosity",2,"a","Incong","a",1,0.53081,4,3,67,4,4306,"small","left",NA,3
"856",9565,"Numerosity",5,"l","Incong","l",1,0.658635,4,11,75,12,12455,"large","right",NA,3
"857",9565,"Digit",5,"l","Incong","l",1,0.66248,2,11,43,15,12456,"large","right",NA,3
"858",9565,"Digit",5,"l","Incong","l",1,0.753145,0,12,12,12,12457,"large","right",NA,3
"859",9565,"Digit",2,"a","Incong","a",1,0.57901,1,9,25,4,4310,"small","left",NA,3
"860",9565,"Numerosity",2,"a","Incong","a",1,0.86236,4,5,69,7,4311,"small","left",NA,3
"861",9565,"Digit",2,"l","Incong","l",1,0.88221,1,3,19,4,4312,"small","right",NA,3
"862",9565,"Numerosity",2,"a","Cong","a",1,0.51919,1,14,30,5,4272,"small","left",NA,3
"863",9565,"Digit",2,"a","Cong","l",0,0.766005,4,13,77,6,4235,"small","right",NA,3
"864",9565,"Digit",4,"a","Cong","a",1,0.386135,0,15,15,10,8327,"large","left",NA,3
"865",9565,"Numerosity",4,"a","Cong","a",1,0.391715,3,6,54,10,8328,"large","left",NA,3
"866",9565,"Digit",4,"a","Cong","a",1,0.39585,4,15,79,10,8329,"large","left",NA,3
"867",9565,"Numerosity",4,"l","Cong","l",1,0.418735,2,14,46,11,8330,"large","right",NA,3
"868",9565,"Numerosity",4,"a","Cong","a",1,0.42036,4,1,65,10,8331,"large","left",NA,3
"869",9565,"Numerosity",4,"l","Cong","l",1,0.434605,2,13,45,10,8332,"large","right",NA,3
"870",9565,"Digit",4,"l","Cong","l",1,0.437555,3,7,55,11,8333,"large","right",NA,3
"871",9565,"Digit",4,"l","Cong","l",1,0.446225,3,0,48,10,8334,"large","right",NA,3
"872",9565,"Digit",4,"a","Cong","a",1,0.44785,4,14,78,11,8335,"large","left",NA,3
"873",9565,"Numerosity",5,"a","Incong","a",1,0.373365,4,2,66,15,12432,"large","left",NA,3
"874",9565,"Digit",1,"l","Incong","a",0,0.3126,2,14,46,2,162,"small","left",NA,3
"875",9565,"Numerosity",1,"l","Incong","a",0,0.343195,0,9,9,2,163,"small","left",NA,3
"876",9565,"Digit",2,"l","Incong","l",1,0.408785,4,8,72,4,4289,"small","right",NA,3
"877",9565,"Digit",1,"l","Incong","l",1,1.16826,2,8,40,3,205,"small","right",6,3
"878",9565,"Digit",4,"a","Cong","a",1,0.50631,1,10,26,10,8340,"large","left",NA,3
"879",9565,"Digit",4,"a","Cong","a",1,0.511105,3,11,59,10,8341,"large","left",NA,3
"880",9565,"Digit",5,"l","Cong","l",1,0.36926,2,14,46,13,12394,"large","right",NA,3
"881",9565,"Numerosity",4,"l","Cong","l",1,0.51978,0,1,1,11,8343,"large","right",NA,3
"882",9565,"Numerosity",5,"l","Incong","l",1,1.40771,4,6,70,15,12423,"large","right",6,3
"883",9565,"Numerosity",5,"l","Cong","l",1,0.396165,1,5,21,14,12400,"large","right",NA,3
"884",9565,"Digit",5,"l","Cong","l",1,0.396165,0,3,3,14,12401,"large","right",NA,3
"885",9565,"Numerosity",5,"a","Cong","a",1,0.41391,3,7,55,14,12402,"large","left",NA,3
"886",9565,"Numerosity",5,"a","Cong","a",1,0.420525,4,10,74,14,12403,"large","left",NA,3
"887",9565,"Numerosity",5,"a","Cong","a",1,0.4249,1,0,16,13,12404,"large","left",NA,3
"888",9565,"Digit",5,"l","Cong","l",1,0.42852,0,14,14,13,12405,"large","right",NA,3
"889",9565,"Numerosity",5,"l","Cong","l",1,0.429545,3,4,52,13,12406,"large","right",NA,3
"890",9565,"Digit",5,"l","Cong","l",1,0.42961,3,1,49,14,12407,"large","right",NA,3
"891",9565,"Numerosity",5,"l","Cong","l",1,0.433475,0,11,11,14,12408,"large","right",NA,3
"892",9565,"Digit",5,"l","Cong","l",1,0.446235,1,6,22,13,12409,"large","right",NA,3
"893",9565,"Numerosity",5,"a","Cong","a",1,0.447975,0,13,13,14,12410,"large","left",NA,3
"894",9565,"Numerosity",5,"l","Cong","l",1,0.466835,1,8,24,13,12411,"large","right",NA,3
"895",9565,"Numerosity",5,"a","Cong","a",1,0.475305,0,7,7,13,12412,"large","left",NA,3
"896",9565,"Digit",2,"l","Incong","l",1,0.543585,2,1,33,4,4307,"small","right",NA,3
"897",9565,"Digit",2,"a","Incong","a",1,0.54522,2,10,42,4,4308,"small","left",NA,3
"898",9565,"Digit",2,"l","Incong","l",1,0.553735,2,10,42,7,4309,"small","right",NA,3
"899",9565,"Numerosity",5,"a","Cong","a",1,0.486485,1,3,19,14,12416,"large","left",NA,3
"900",9565,"Digit",5,"a","Cong","a",1,0.493865,3,9,57,13,12417,"large","left",NA,3
"901",9565,"Digit",5,"a","Cong","a",1,0.509475,1,4,20,14,12418,"large","left",NA,3
"902",9565,"Numerosity",2,"a","Incong","a",1,0.89328,0,0,0,7,4313,"small","left",NA,3
"903",9565,"Digit",5,"a","Cong","a",1,0.54482,3,15,63,14,12420,"large","left",NA,3
"904",9565,"Numerosity",2,"a","Incong","l",0,0.33339,2,12,44,4,4236,"small","right",NA,3
"905",9565,"Numerosity",2,"l","Incong","a",0,0.3689,4,11,75,4,4237,"small","left",NA,3
"906",9565,"Digit",2,"a","Incong","l",0,0.3813,2,6,38,7,4238,"small","right",NA,3
"907",9565,"Numerosity",2,"l","Incong","a",0,0.410415,1,7,23,4,4239,"small","left",NA,3
"908",9565,"Numerosity",2,"a","Incong","l",0,0.59211,3,14,62,4,4240,"small","right",NA,3
"909",9565,"Numerosity",2,"l","Incong","a",0,0.65475,2,3,35,4,4241,"small","left",NA,3
"910",9565,"Numerosity",2,"l","Cong","l",1,0.33963,2,11,43,5,4242,"small","right",NA,3
"911",9565,"Numerosity",2,"a","Cong","a",1,0.345715,0,8,8,5,4243,"small","left",NA,3
"912",9565,"Digit",5,"l","Incong","l",1,0.36776,0,4,4,15,12431,"large","right",NA,3
"913",9565,"Digit",1,"l","Cong","a",0,0.379905,2,9,41,0,161,"small","left",NA,3
"914",9565,"Digit",5,"a","Cong","a",1,0.356335,0,8,8,13,12390,"large","left",NA,3
"915",9565,"Digit",5,"a","Cong","a",1,0.359975,4,12,76,14,12391,"large","left",NA,3
"916",9565,"Numerosity",5,"l","Cong","l",1,0.361725,4,12,76,14,12392,"large","right",NA,3
"917",9565,"Numerosity",5,"l","Cong","l",1,0.36511,2,7,39,13,12393,"large","right",NA,3
"918",9565,"Numerosity",5,"a","Cong","a",1,0.56097,4,4,68,13,12421,"large","left",NA,3
"919",9565,"Numerosity",5,"a","Incong","l",0,0.394965,3,11,59,15,12381,"large","right",NA,3
"920",9565,"Numerosity",5,"l","Incong","a",0,0.4142,2,10,42,12,12382,"large","left",NA,3
"921",9565,"Digit",5,"l","Cong","l",1,0.37552,4,4,68,13,12395,"large","right",NA,3
"922",9565,"Numerosity",5,"a","Cong","a",1,0.375825,2,9,41,13,12396,"large","left",NA,3
"923",9565,"Digit",5,"a","Cong","a",1,0.37931,2,12,44,13,12397,"large","left",NA,3
"924",9565,"Digit",5,"l","Cong","l",1,0.381025,1,0,16,14,12398,"large","right",NA,3
"925",9565,"Numerosity",5,"a","Cong","a",1,0.387085,2,7,39,14,12399,"large","left",NA,3
"926",9565,"Digit",5,"l","Cong","l",1,0.3525,2,1,33,14,12388,"large","right",NA,3
"927",9565,"Digit",5,"a","Cong","a",1,0.353415,0,0,0,14,12389,"large","left",NA,3
"928",9565,"Digit",2,"a","Incong","a",1,0.387855,3,13,61,7,4286,"small","left",NA,3
"929",9565,"Digit",5,"a","Cong","a",1,0.515455,2,11,43,14,12419,"large","left",NA,3
"930",9565,"Digit",2,"l","Incong","l",1,0.40768,0,13,13,4,4288,"small","right",NA,3
"931",9565,"Digit",2,"l","Incong","l",1,0.38361,3,10,58,7,4285,"small","right",NA,3
"932",9565,"Numerosity",5,"a","Cong","a",1,0.477025,3,10,58,13,12413,"large","left",NA,3
"933",9565,"Digit",5,"l","Cong","l",1,0.646565,3,14,62,13,12422,"large","right",NA,3
"934",9565,"Numerosity",5,"a","Incong","l",0,0.447905,1,11,27,12,12383,"large","right",NA,3
"935",9565,"Numerosity",5,"l","Cong","l",1,0.270935,0,7,7,13,12384,"large","right",NA,3
"936",9565,"Digit",5,"a","Incong","a",1,0.360695,1,7,23,15,12430,"large","left",NA,3
"937",9565,"Digit",5,"a","Cong","a",1,0.477805,4,5,69,13,12414,"large","left",NA,3
"938",9565,"Digit",5,"l","Cong","l",1,0.48269,4,7,71,14,12415,"large","right",NA,3
"939",9565,"Numerosity",5,"a","Incong","a",1,0.35701,0,6,6,15,12429,"large","left",NA,3
"940",9565,"Digit",2,"l","Incong","l",1,0.382785,1,9,25,7,4284,"small","right",NA,3
"941",9565,"Numerosity",2,"a","Incong","a",1,0.35929,0,2,2,4,4281,"small","left",NA,3
"942",9565,"Numerosity",2,"l","Incong","l",1,0.3881,0,14,14,4,4287,"small","right",NA,3
"943",9565,"Numerosity",2,"l","Incong","l",1,0.375565,0,12,12,7,4283,"small","right",NA,3
"944",9565,"Numerosity",5,"l","Incong","l",1,0.34303,2,5,37,15,12425,"large","right",NA,3
"945",9565,"Numerosity",5,"l","Cong","l",1,0.2868,2,8,40,14,12385,"large","right",NA,3
"946",9565,"Digit",5,"a","Cong","a",1,0.33618,1,12,28,13,12386,"large","left",NA,3
"947",9565,"Numerosity",5,"a","Incong","a",1,0.341565,3,7,55,12,12424,"large","left",NA,3
"948",9565,"Numerosity",2,"a","Cong","a",1,0.8452,4,13,77,6,4278,"small","left",NA,3
"949",9565,"Digit",2,"a","Cong","a",1,0.8626,1,3,19,5,4279,"small","left",NA,3
"950",9565,"Numerosity",2,"l","Incong","l",1,0.28074,4,9,73,7,4280,"small","right",NA,3
"951",9565,"Numerosity",5,"l","Cong","l",1,0.34931,4,4,68,13,12387,"large","right",NA,3
"952",9565,"Digit",2,"a","Cong","a",1,0.525315,3,15,63,5,4273,"small","left",NA,3
"953",9565,"Digit",2,"l","Cong","l",1,0.530445,0,12,12,6,4274,"small","right",NA,3
"954",9565,"Digit",5,"l","Incong","l",1,0.34396,2,4,36,12,12426,"large","right",NA,3
"955",9565,"Digit",2,"a","Incong","a",1,0.36419,0,2,2,7,4282,"small","left",NA,3
"956",9565,"Numerosity",5,"l","Incong","l",1,0.35617,0,3,3,15,12428,"large","right",NA,3
"957",9565,"Numerosity",2,"l","Cong","l",1,0.60618,1,5,21,5,4277,"small","right",NA,3
"958",9565,"Numerosity",5,"a","Incong","a",1,0.35031,2,1,33,12,12427,"large","left",NA,3
"959",9565,"Digit",2,"l","Cong","l",1,0.59162,2,3,35,6,4276,"small","right",NA,3
"960",9565,"Numerosity",2,"l","Cong","l",1,0.53143,3,12,60,5,4275,"small","right",NA,3
"961",9712,"Numerosity",1,"l","Cong","l",1,0.39331,0,3,3,0,252,"small","right",NA,4
"962",9712,"Digit",1,"l","Cong","l",1,0.459625,2,2,34,1,264,"small","right",NA,4
"963",9712,"Digit",1,"l","Cong","l",1,0.35859,1,5,21,0,249,"small","right",NA,4
"964",9712,"Digit",4,"a","Cong","a",1,0.687415,2,13,45,10,8424,"large","left",NA,4
"965",9712,"Digit",4,"a","Cong","a",1,0.628665,1,4,20,10,8423,"large","left",NA,4
"966",9712,"Digit",1,"a","Cong","a",1,0.42773,0,12,12,0,259,"small","left",NA,4
"967",9712,"Numerosity",1,"a","Cong","a",1,0.459785,4,0,64,1,265,"small","left",NA,4
"968",9712,"Digit",1,"l","Cong","l",1,0.434415,4,1,65,1,262,"small","right",NA,4
"969",9712,"Digit",1,"l","Cong","l",1,0.4275,1,13,29,1,258,"small","right",NA,4
"970",9712,"Digit",1,"a","Cong","a",1,0.444565,2,9,41,1,263,"small","left",NA,4
"971",9712,"Numerosity",1,"a","Cong","a",1,0.428015,4,13,77,0,260,"small","left",NA,4
"972",9712,"Numerosity",1,"l","Cong","l",1,0.43018,2,6,38,0,261,"small","right",NA,4
"973",9712,"Digit",4,"l","Incong","l",1,0.524595,2,1,33,8,8449,"large","right",NA,4
"974",9712,"Digit",1,"a","Cong","a",1,0.47616,4,8,72,1,267,"small","left",NA,4
"975",9712,"Numerosity",4,"l","Cong","l",1,0.377405,2,3,35,11,8395,"large","right",NA,4
"976",9712,"Numerosity",1,"l","Cong","l",1,0.35944,1,7,23,0,250,"small","right",NA,4
"977",9712,"Numerosity",1,"a","Cong","a",1,0.473265,3,14,62,1,266,"small","left",NA,4
"978",9712,"Numerosity",4,"l","Cong","l",1,0.428195,1,10,26,11,8404,"large","right",NA,4
"979",9712,"Numerosity",4,"a","Cong","a",1,0.43347,0,15,15,10,8405,"large","left",NA,4
"980",9712,"Digit",4,"l","Cong","l",1,0.438745,2,12,44,11,8406,"large","right",NA,4
"981",9712,"Numerosity",4,"a","Cong","a",1,0.3161,3,11,59,11,8392,"large","left",NA,4
"982",9712,"Numerosity",4,"l","Cong","l",1,0.335255,3,7,55,11,8393,"large","right",NA,4
"983",9712,"Digit",4,"l","Cong","l",1,0.361845,3,4,52,11,8394,"large","right",NA,4
"984",9712,"Numerosity",4,"l","Incong","l",1,0.5268,3,3,51,8,8450,"large","right",NA,4
"985",9712,"Digit",4,"l","Cong","l",1,0.38087,2,10,42,10,8396,"large","right",NA,4
"986",9712,"Numerosity",4,"l","Cong","l",1,0.784165,3,0,48,10,8425,"large","right",NA,4
"987",9712,"Numerosity",1,"a","Cong","a",1,0.401745,1,4,20,0,253,"small","left",NA,4
"988",9712,"Numerosity",1,"a","Cong","a",1,0.412695,2,8,40,0,254,"small","left",NA,4
"989",9712,"Digit",1,"l","Cong","l",1,0.426005,2,6,38,0,255,"small","right",NA,4
"990",9712,"Digit",1,"a","Cong","a",1,0.42698,0,9,9,1,256,"small","left",NA,4
"991",9712,"Numerosity",1,"l","Cong","l",1,0.427225,3,15,63,0,257,"small","right",NA,4
"992",9712,"Numerosity",4,"l","Cong","l",1,0.310585,0,2,2,11,8390,"large","right",NA,4
"993",9712,"Numerosity",4,"a","Cong","a",1,0.31158,3,4,52,10,8391,"large","left",NA,4
"994",9712,"Digit",1,"a","Cong","a",1,0.52724,4,4,68,0,270,"small","left",NA,4
"995",9712,"Digit",1,"a","Cong","a",1,0.53439,3,0,48,0,271,"small","left",NA,4
"996",9712,"Digit",1,"l","Cong","l",1,0.56531,3,4,52,0,272,"small","right",NA,4
"997",9712,"Numerosity",1,"a","Cong","a",1,0.358125,2,11,43,1,248,"small","left",NA,4
"998",9712,"Digit",4,"a","Cong","a",1,0.6237,0,1,1,10,8422,"large","left",NA,4
"999",9712,"Digit",4,"a","Cong","a",1,0.392235,0,10,10,11,8397,"large","left",NA,4
"1000",9712,"Numerosity",4,"l","Cong","l",1,0.39482,0,6,6,10,8398,"large","right",NA,4
"1001",9712,"Numerosity",4,"a","Cong","a",1,0.401165,2,3,35,11,8399,"large","left",NA,4
"1002",9712,"Numerosity",4,"a","Cong","a",1,0.409605,0,11,11,11,8400,"large","left",NA,4
"1003",9712,"Numerosity",4,"a","Cong","a",1,0.425955,2,8,40,10,8401,"large","left",NA,4
"1004",9712,"Digit",4,"a","Cong","a",1,0.42712,3,9,57,10,8402,"large","left",NA,4
"1005",9712,"Numerosity",4,"l","Cong","l",1,0.427755,4,12,76,11,8403,"large","right",NA,4
"1006",9712,"Numerosity",1,"l","Cong","l",1,0.52002,0,12,12,1,269,"small","right",NA,4
"1007",9712,"Digit",1,"a","Incong","a",1,0.460555,4,15,79,2,296,"small","left",NA,4
"1008",9712,"Numerosity",1,"l","Incong","l",1,0.46464,2,5,37,2,297,"small","right",NA,4
"1009",9712,"Numerosity",1,"l","Incong","l",1,0.47112,3,9,57,3,298,"small","right",NA,4
"1010",9712,"Digit",1,"a","Incong","a",1,0.47224,0,0,0,3,299,"small","left",NA,4
"1011",9712,"Digit",1,"l","Incong","l",1,0.47492,0,12,12,2,300,"small","right",NA,4
"1012",9712,"Digit",1,"a","Incong","l",0,1.177215,4,1,65,3,242,"small","right",7,4
"1013",9712,"Numerosity",1,"l","Cong","l",1,0.378365,4,14,78,1,251,"small","right",NA,4
"1014",9712,"Digit",4,"l","Cong","a",0,0.51033,3,2,50,10,8383,"large","left",NA,4
"1015",9712,"Digit",4,"l","Cong","a",0,0.534145,0,13,13,10,8384,"large","left",NA,4
"1016",9712,"Numerosity",4,"a","Incong","l",0,0.41123,4,5,69,8,8386,"large","right",NA,4
"1017",9712,"Digit",4,"l","Incong","a",0,0.484535,0,14,14,8,8387,"large","left",NA,4
"1018",9712,"Numerosity",4,"l","Incong","a",0,0.49351,4,3,67,9,8388,"large","left",NA,4
"1019",9712,"Numerosity",1,"a","Incong","a",1,0.446095,0,9,9,3,295,"small","left",NA,4
"1020",9712,"Digit",1,"l","Incong","l",1,0.54288,4,0,64,3,309,"small","right",NA,4
"1021",9712,"Numerosity",1,"a","Incong","a",1,0.545675,0,14,14,2,310,"small","left",NA,4
"1022",9712,"Numerosity",1,"a","Incong","a",1,0.555745,3,2,50,2,311,"small","left",NA,4
"1023",9712,"Numerosity",1,"a","Incong","a",1,0.581445,4,12,76,2,312,"small","left",NA,4
"1024",9712,"Numerosity",1,"l","Incong","l",1,0.58443,4,8,72,3,313,"small","right",NA,4
"1025",9712,"Digit",1,"l","Incong","l",1,0.493395,1,0,16,2,301,"small","right",NA,4
"1026",9712,"Digit",1,"l","Incong","l",1,0.50929,4,13,77,2,302,"small","right",NA,4
"1027",9712,"Numerosity",1,"l","Incong","l",1,0.5101,0,7,7,2,303,"small","right",NA,4
"1028",9712,"Numerosity",1,"a","Incong","a",1,0.51763,1,10,26,3,304,"small","left",NA,4
"1029",9712,"Digit",1,"l","Incong","l",1,0.52007,0,9,9,3,305,"small","right",NA,4
"1030",9712,"Digit",1,"l","Incong","l",1,0.524635,2,5,37,3,306,"small","right",NA,4
"1031",9712,"Digit",1,"a","Incong","a",1,0.52661,1,9,25,2,307,"small","left",NA,4
"1032",9712,"Numerosity",1,"a","Incong","a",1,0.534745,2,15,47,3,308,"small","left",NA,4
"1033",9712,"Numerosity",1,"a","Cong","l",0,0.713065,1,1,17,1,241,"small","right",NA,4
"1034",9712,"Numerosity",1,"l","Incong","a",0,0.24977,3,1,49,2,243,"small","left",NA,4
"1035",9712,"Numerosity",1,"l","Cong","l",1,0.04763,4,9,73,0,246,"small","right",NA,4
"1036",9712,"Digit",1,"l","Cong","l",1,0.34574,0,15,15,1,247,"small","right",NA,4
"1037",9712,"Numerosity",4,"a","Cong","a",1,0.61441,1,8,24,10,8421,"large","left",NA,4
"1038",9712,"Digit",2,"l","Cong","l",1,0.443915,0,4,4,6,4329,"small","right",NA,4
"1039",9712,"Digit",2,"a","Cong","a",1,0.461435,0,5,5,6,4330,"small","left",NA,4
"1040",9712,"Numerosity",1,"l","Cong","l",1,1.421605,1,2,18,1,244,"small","right",7,4
"1041",9712,"Digit",1,"a","Cong","a",1,1.479355,1,1,17,0,245,"small","left",7,4
"1042",9712,"Digit",1,"a","Incong","a",1,0.431485,3,3,51,2,291,"small","left",NA,4
"1043",9712,"Digit",1,"a","Incong","a",1,0.441,1,2,18,3,292,"small","left",NA,4
"1044",9712,"Digit",1,"l","Incong","l",1,0.443595,3,14,62,3,293,"small","right",NA,4
"1045",9712,"Numerosity",1,"l","Incong","l",1,0.44472,1,8,24,3,294,"small","right",NA,4
"1046",9712,"Digit",2,"l","Cong","l",1,0.4947,2,7,39,5,4337,"small","right",NA,4
"1047",9712,"Digit",2,"a","Cong","a",1,0.505105,1,6,22,6,4338,"small","left",NA,4
"1048",9712,"Digit",2,"l","Cong","l",1,0.51327,4,7,71,5,4339,"small","right",NA,4
"1049",9712,"Numerosity",2,"l","Cong","l",1,0.51427,3,10,58,5,4340,"small","right",NA,4
"1050",9712,"Digit",2,"a","Cong","a",1,0.54503,4,14,78,6,4341,"small","left",NA,4
"1051",9712,"Digit",2,"a","Cong","a",1,0.545635,4,11,75,5,4342,"small","left",NA,4
"1052",9712,"Digit",2,"a","Cong","a",1,0.55917,3,13,61,6,4343,"small","left",NA,4
"1053",9712,"Digit",2,"a","Cong","a",1,0.56297,2,2,34,5,4344,"small","left",NA,4
"1054",9712,"Numerosity",2,"a","Cong","a",1,0.56326,2,14,46,6,4345,"small","left",NA,4
"1055",9712,"Digit",2,"l","Cong","l",1,0.56504,3,11,59,6,4346,"small","right",NA,4
"1056",9712,"Digit",2,"a","Cong","a",1,0.5699,3,7,55,5,4347,"small","left",NA,4
"1057",9712,"Numerosity",2,"a","Cong","a",1,0.578485,3,2,50,5,4348,"small","left",NA,4
"1058",9712,"Numerosity",2,"a","Cong","a",1,0.578915,1,3,19,6,4349,"small","left",NA,4
"1059",9712,"Numerosity",2,"l","Cong","l",1,0.62292,2,13,45,6,4350,"small","right",NA,4
"1060",9712,"Numerosity",2,"l","Cong","l",1,0.627315,2,7,39,5,4351,"small","right",NA,4
"1061",9712,"Numerosity",2,"l","Cong","l",1,0.63189,1,0,16,5,4352,"small","right",NA,4
"1062",9712,"Digit",2,"a","Cong","a",1,0.6342,1,10,26,5,4353,"small","left",NA,4
"1063",9712,"Numerosity",2,"a","Cong","a",1,0.66679,2,6,38,5,4354,"small","left",NA,4
"1064",9712,"Numerosity",2,"a","Cong","a",1,0.66894,0,4,4,6,4355,"small","left",NA,4
"1065",9712,"Numerosity",1,"a","Incong","a",1,0.595235,2,2,34,2,314,"small","left",NA,4
"1066",9712,"Digit",4,"l","Incong","l",1,0.542445,1,14,30,8,8451,"large","right",NA,4
"1067",9712,"Digit",4,"l","Incong","l",1,0.553595,2,11,43,9,8452,"large","right",NA,4
"1068",9712,"Digit",4,"a","Incong","a",1,0.560265,0,8,8,9,8453,"large","left",NA,4
"1069",9712,"Numerosity",4,"l","Incong","l",1,0.561315,2,11,43,9,8454,"large","right",NA,4
"1070",9712,"Digit",4,"a","Incong","a",1,0.597895,2,15,47,8,8455,"large","left",NA,4
"1071",9712,"Numerosity",4,"a","Incong","a",1,0.613105,0,11,11,9,8456,"large","left",NA,4
"1072",9712,"Digit",4,"l","Incong","l",1,0.646475,3,9,57,8,8457,"large","right",NA,4
"1073",9712,"Numerosity",4,"a","Incong","a",1,0.696375,0,0,0,8,8458,"large","left",NA,4
"1074",9712,"Numerosity",4,"l","Incong","l",1,0.70936,3,1,49,9,8459,"large","right",NA,4
"1075",9712,"Digit",4,"a","Incong","a",1,0.75971,3,12,60,8,8460,"large","left",NA,4
"1076",9712,"Digit",4,"l","Incong","l",1,0.818385,3,15,63,9,8461,"large","right",NA,4
"1077",9712,"Digit",4,"l","Incong","l",1,0.982295,4,3,67,8,8462,"large","right",NA,4
"1078",9712,"Numerosity",2,"l","Incong","l",1,0.443675,4,11,75,7,4370,"small","right",NA,4
"1079",9712,"Digit",2,"a","Incong","a",1,0.44791,3,6,54,4,4371,"small","left",NA,4
"1080",9712,"Numerosity",2,"a","Incong","a",1,0.45142,2,1,33,7,4372,"small","left",NA,4
"1081",9712,"Numerosity",2,"a","Incong","a",1,0.454875,0,8,8,7,4373,"small","left",NA,4
"1082",9712,"Digit",2,"l","Incong","l",1,0.4576,4,5,69,7,4374,"small","right",NA,4
"1083",9712,"Digit",2,"l","Incong","l",1,0.45927,1,15,31,4,4375,"small","right",NA,4
"1084",9712,"Digit",2,"l","Incong","l",1,0.513725,2,12,44,7,4376,"small","right",NA,4
"1085",9712,"Digit",2,"a","Incong","a",1,0.52309,1,12,28,7,4377,"small","left",NA,4
"1086",9712,"Numerosity",2,"a","Incong","a",1,0.5306,4,1,65,4,4378,"small","left",NA,4
"1087",9712,"Numerosity",2,"l","Incong","l",1,0.537285,2,4,36,4,4379,"small","right",NA,4
"1088",9712,"Digit",2,"l","Incong","l",1,0.540725,1,3,19,7,4380,"small","right",NA,4
"1089",9712,"Digit",2,"l","Incong","l",1,0.54594,3,0,48,7,4381,"small","right",NA,4
"1090",9712,"Numerosity",2,"a","Incong","a",1,0.55178,3,6,54,4,4382,"small","left",NA,4
"1091",9712,"Numerosity",2,"a","Incong","a",1,0.561115,4,8,72,7,4383,"small","left",NA,4
"1092",9712,"Numerosity",2,"l","Incong","l",1,0.56958,2,15,47,7,4384,"small","right",NA,4
"1093",9712,"Digit",2,"a","Incong","a",1,0.575555,4,5,69,4,4385,"small","left",NA,4
"1094",9712,"Digit",2,"a","Incong","a",1,0.585155,0,8,8,7,4386,"small","left",NA,4
"1095",9712,"Digit",2,"a","Incong","a",1,0.601955,2,4,36,4,4387,"small","left",NA,4
"1096",9712,"Digit",2,"l","Incong","l",1,0.666325,0,11,11,7,4388,"small","right",NA,4
"1097",9712,"Digit",2,"l","Incong","l",1,0.694235,2,3,35,4,4389,"small","right",NA,4
"1098",9712,"Numerosity",2,"a","Incong","a",1,0.72298,2,0,32,4,4390,"small","left",NA,4
"1099",9712,"Digit",2,"a","Incong","a",1,0.745305,0,1,1,4,4391,"small","left",NA,4
"1100",9712,"Numerosity",1,"a","Cong","a",1,0.517155,3,13,61,0,268,"small","left",NA,4
"1101",9712,"Numerosity",5,"a","Cong","l",0,0.310515,3,12,60,14,12458,"large","right",NA,4
"1102",9712,"Digit",5,"l","Cong","a",0,0.545305,0,15,15,13,12459,"large","left",NA,4
"1103",9712,"Numerosity",5,"a","Incong","l",0,0.33143,2,12,44,15,12460,"large","right",NA,4
"1104",9712,"Digit",5,"a","Incong","l",0,0.34898,2,1,33,15,12461,"large","right",NA,4
"1105",9712,"Numerosity",2,"l","Cong","l",1,0.697945,0,13,13,5,4356,"small","right",NA,4
"1106",9712,"Digit",2,"l","Cong","l",1,0.767635,4,14,78,6,4357,"small","right",NA,4
"1107",9712,"Numerosity",2,"a","Incong","a",1,0.31742,0,5,5,4,4359,"small","left",NA,4
"1108",9712,"Numerosity",2,"l","Incong","l",1,0.326815,1,6,22,7,4360,"small","right",NA,4
"1109",9712,"Numerosity",2,"l","Incong","l",1,0.361685,3,11,59,7,4361,"small","right",NA,4
"1110",9712,"Digit",2,"l","Incong","l",1,0.373235,3,2,50,4,4362,"small","right",NA,4
"1111",9712,"Numerosity",2,"l","Incong","l",1,0.382505,1,11,27,4,4363,"small","right",NA,4
"1112",9712,"Numerosity",2,"l","Incong","l",1,0.384735,0,9,9,4,4364,"small","right",NA,4
"1113",9712,"Digit",2,"a","Incong","a",1,0.38765,2,13,45,7,4365,"small","left",NA,4
"1114",9712,"Numerosity",2,"l","Incong","l",1,0.4276,4,1,65,4,4366,"small","right",NA,4
"1115",9712,"Digit",2,"l","Incong","l",1,0.428525,0,13,13,4,4367,"small","right",NA,4
"1116",9712,"Numerosity",2,"a","Incong","a",1,0.43407,3,5,53,7,4368,"small","left",NA,4
"1117",9712,"Numerosity",2,"l","Incong","l",1,0.43945,3,5,53,4,4369,"small","right",NA,4
"1118",9712,"Numerosity",5,"l","Cong","l",1,0.43516,4,3,67,14,12477,"large","right",NA,4
"1119",9712,"Digit",5,"a","Cong","a",1,0.44482,3,5,53,13,12478,"large","left",NA,4
"1120",9712,"Numerosity",5,"a","Cong","a",1,0.44521,0,10,10,14,12479,"large","left",NA,4
"1121",9712,"Numerosity",5,"a","Cong","a",1,0.45168,1,14,30,13,12480,"large","left",NA,4
"1122",9712,"Numerosity",5,"a","Cong","a",1,0.45463,0,6,6,13,12481,"large","left",NA,4
"1123",9712,"Numerosity",5,"l","Cong","l",1,0.455985,0,10,10,14,12482,"large","right",NA,4
"1124",9712,"Numerosity",5,"a","Cong","a",1,0.461905,4,2,66,13,12483,"large","left",NA,4
"1125",9712,"Digit",5,"a","Cong","a",1,0.468515,0,7,7,14,12484,"large","left",NA,4
"1126",9712,"Digit",5,"a","Cong","a",1,0.4759,4,15,79,14,12485,"large","left",NA,4
"1127",9712,"Digit",5,"a","Cong","a",1,0.49369,3,10,58,14,12486,"large","left",NA,4
"1128",9712,"Digit",5,"l","Cong","l",1,0.4947,1,13,29,13,12487,"large","right",NA,4
"1129",9712,"Numerosity",5,"l","Cong","l",1,0.49985,1,9,25,13,12488,"large","right",NA,4
"1130",9712,"Numerosity",5,"a","Cong","a",1,0.510825,4,5,69,14,12489,"large","left",NA,4
"1131",9712,"Digit",5,"l","Cong","l",1,0.5133,3,10,58,13,12490,"large","right",NA,4
"1132",9712,"Digit",5,"a","Cong","a",1,0.522605,1,12,28,13,12491,"large","left",NA,4
"1133",9712,"Numerosity",5,"a","Cong","a",1,0.54322,2,10,42,13,12492,"large","left",NA,4
"1134",9712,"Digit",5,"a","Cong","a",1,0.54612,1,9,25,14,12493,"large","left",NA,4
"1135",9712,"Numerosity",5,"l","Cong","l",1,0.551675,3,12,60,14,12494,"large","right",NA,4
"1136",9712,"Numerosity",5,"a","Cong","a",1,0.553935,3,14,62,13,12495,"large","left",NA,4
"1137",9712,"Numerosity",5,"a","Cong","a",1,0.593085,1,12,28,14,12496,"large","left",NA,4
"1138",9712,"Digit",5,"l","Cong","l",1,0.593325,4,7,71,14,12497,"large","right",NA,4
"1139",9712,"Digit",5,"a","Cong","a",1,0.5954,0,0,0,13,12498,"large","left",NA,4
"1140",9712,"Digit",5,"l","Cong","l",1,0.64591,4,9,73,13,12499,"large","right",NA,4
"1141",9712,"Digit",5,"l","Cong","l",1,0.678375,2,3,35,13,12500,"large","right",NA,4
"1142",9712,"Numerosity",5,"l","Cong","l",1,0.687835,3,15,63,13,12501,"large","right",NA,4
"1143",9712,"Numerosity",5,"l","Incong","l",1,0.36513,1,5,21,12,12502,"large","right",NA,4
"1144",9712,"Digit",5,"a","Incong","a",1,0.3774,4,2,66,12,12503,"large","left",NA,4
"1145",9712,"Numerosity",5,"a","Incong","a",1,0.418645,3,8,56,12,12504,"large","left",NA,4
"1146",9712,"Digit",5,"a","Incong","a",1,0.41939,1,10,26,12,12505,"large","left",NA,4
"1147",9712,"Digit",5,"l","Incong","l",1,0.42057,1,8,24,15,12506,"large","right",NA,4
"1148",9712,"Digit",5,"a","Incong","a",1,0.4326,3,15,63,15,12507,"large","left",NA,4
"1149",9712,"Digit",5,"a","Incong","a",1,0.44387,1,2,18,15,12508,"large","left",NA,4
"1150",9712,"Numerosity",5,"a","Incong","a",1,0.44471,4,10,74,15,12509,"large","left",NA,4
"1151",9712,"Digit",5,"l","Incong","l",1,0.44545,0,2,2,12,12510,"large","right",NA,4
"1152",9712,"Numerosity",5,"a","Incong","a",1,0.45152,0,14,14,15,12511,"large","left",NA,4
"1153",9712,"Numerosity",5,"l","Incong","l",1,0.46043,4,0,64,12,12512,"large","right",NA,4
"1154",9712,"Digit",5,"l","Incong","l",1,0.472825,3,12,60,15,12513,"large","right",NA,4
"1155",9712,"Numerosity",5,"l","Incong","l",1,0.477845,0,4,4,12,12514,"large","right",NA,4
"1156",9712,"Numerosity",5,"l","Incong","l",1,0.49193,0,7,7,15,12515,"large","right",NA,4
"1157",9712,"Digit",5,"a","Incong","a",1,0.49291,3,13,61,12,12516,"large","left",NA,4
"1158",9712,"Numerosity",5,"l","Incong","l",1,0.5174,2,9,41,15,12517,"large","right",NA,4
"1159",9712,"Digit",5,"a","Incong","a",1,0.529345,4,6,70,15,12518,"large","left",NA,4
"1160",9712,"Numerosity",5,"a","Incong","a",1,0.532065,4,6,70,12,12519,"large","left",NA,4
"1161",9712,"Numerosity",2,"l","Cong","l",1,0.468755,1,1,17,6,4331,"small","right",NA,4
"1162",9712,"Digit",2,"a","Cong","a",1,0.47212,2,15,47,6,4332,"small","left",NA,4
"1163",9712,"Numerosity",2,"a","Cong","a",1,0.47547,0,8,8,5,4333,"small","left",NA,4
"1164",9712,"Numerosity",2,"l","Cong","l",1,0.476865,3,7,55,6,4334,"small","right",NA,4
"1165",9712,"Numerosity",2,"l","Cong","l",1,0.481865,4,6,70,6,4335,"small","right",NA,4
"1166",9712,"Digit",2,"l","Cong","l",1,0.48245,1,14,30,5,4336,"small","right",NA,4
"1167",9712,"Digit",5,"a","Incong","a",1,0.58563,0,3,3,12,12526,"large","left",NA,4
"1168",9712,"Numerosity",5,"l","Incong","l",1,0.5979,3,8,56,12,12527,"large","right",NA,4
"1169",9712,"Digit",5,"l","Incong","l",1,0.602895,1,3,19,12,12528,"large","right",NA,4
"1170",9712,"Numerosity",5,"a","Incong","a",1,0.610575,1,2,18,12,12529,"large","left",NA,4
"1171",9712,"Numerosity",5,"a","Incong","a",1,0.61113,2,2,34,12,12530,"large","left",NA,4
"1172",9712,"Digit",5,"a","Incong","a",1,0.618395,2,14,46,12,12531,"large","left",NA,4
"1173",9712,"Numerosity",5,"a","Incong","a",1,0.628765,1,5,21,15,12532,"large","left",NA,4
